,time_setup_problem_solving,time_sort_problem_solving,time_problem_solving_keyboard,time_tracking_problem_solving,prolific_id,correct_problem_solving_keyboard,correct_solvability_keyboard,one,two,three,four,five,response_problem_solving_keyboard,response_confidence_keyboard,response_solvability_keyboard,response_time_confidence_keyboard,response_time_solvability_keyboard,response_time_problem_solving_keyboard,response_time_insight_keyboard,problem_solving,confidence,feedback_1,feedback_2,feedback_3,feedback_4,correct_confidence_keyboard,insight,response_insight_keyboard,correct_response,response_raven_keyboard,raven_problem,raven_answer,correct_raven_keyboard,subject_num,block,ThreeRespRT,concatenated,solvability,actualDim,digitCard,color_sum,fill_sum,shape_sum,back_sum,color1,color2,color3,fill1,fill2,fill3,shape1,shape2,shape3,back1,back2,back3,answer,modSum_color,modSum_fill,modSum_shape,modSum_back,trial_num,accuracy,session,cum_acc,trial_in_block,raven_score,choice_color,choice_fill,choice_shape,choice_back,corrMod,choMod,choC_acc,choF_acc,choS_acc,choB_acc
0,328324.0,331842.0,331669.0,331841.0,673646950eb7c31614a424bf,0.0,0.0,yellow_full_circle_white.png,green_half_square_black.png,red_empty_circle_white.png,green_half_circle_white.png,green_empty_circle_white.png,5.0,3.0,3.0,1680.0,1066.0,157.0,1158.0,135.0,3.0,,,,,0.0,0,g,134.0,,,,0,0,1.0,1151.0,135.0,3.0,4.0,"[(1, 2, 0, 2), (2, 1, 2, 0), (0, 0, 0, 2), (2, 1, 0, 2), (2, 0, 0, 2)]",d,d,s,s,green,yellow,red,half,full,empty,circle,circle,circle,white,white,white,3.0,3.0,3.0,1.0,1.0,0,0,train,0,0,0.8166666666666667,3.0,2.0,1.0,1.0,"(3, 3, 1, 1)","(3, 2, 1, 1)",1.0,0.0,1.0,1.0
1,342541.0,344675.0,344052.0,344674.0,673646950eb7c31614a424bf,0.0,0.0,red_full_circle_white.png,green_full_circle_grey.png,yellow_full_square_grey.png,yellow_empty_circle_grey.png,yellow_full_circle_black.png,4.0,2.0,3.0,1338.0,1040.0,610.0,1586.0,234.0,2.0,,,,,0.0,0,g,125.0,,,,0,0,1.0,951.0,234.0,3.0,4.0,"[(0, 2, 0, 2), (2, 2, 0, 1), (1, 2, 2, 1), (1, 0, 0, 1), (1, 2, 0, 0)]",d,s,s,d,yellow,red,green,full,full,full,circle,circle,circle,black,white,grey,2.0,3.0,1.0,1.0,3.0,1,0,train,0,1,0.8166666666666667,2.0,2.0,2.0,1.0,"(3, 1, 1, 3)","(2, 2, 2, 1)",0.0,0.0,0.0,1.0
2,355407.0,358858.0,358664.0,358857.0,673646950eb7c31614a424bf,0.0,0.0,red_half_circle_white.png,green_half_square_black.png,yellow_half_circle_black.png,red_empty_triangle_grey.png,green_half_circle_grey.png,5.0,2.0,2.0,2442.0,996.0,186.0,1422.0,345.0,2.0,,,,,0.0,0,g,135.0,,,,0,0,1.0,534.0,345.0,2.0,4.0,"[(0, 1, 0, 2), (2, 1, 2, 0), (1, 1, 0, 0), (0, 0, 1, 1), (2, 1, 0, 1)]",d,s,s,d,green,red,yellow,half,half,half,circle,circle,circle,grey,white,black,4.0,3.0,1.0,1.0,3.0,2,0,train,0,2,0.8166666666666667,3.0,2.0,2.0,2.0,"(3, 1, 1, 3)","(3, 2, 2, 2)",1.0,0.0,0.0,0.0
3,370657.0,372975.0,372848.0,372974.0,673646950eb7c31614a424bf,0.0,0.0,yellow_empty_triangle_grey.png,yellow_half_square_grey.png,green_full_triangle_black.png,red_full_triangle_grey.png,yellow_full_circle_grey.png,4.0,3.0,2.0,2087.0,1112.0,113.0,1442.0,134.0,3.0,,,,,0.0,0,g,125.0,,,,0,0,1.0,1266.9999999999418,134.0,2.0,4.0,"[(1, 0, 1, 1), (1, 1, 2, 1), (2, 2, 1, 0), (0, 2, 1, 1), (1, 2, 0, 1)]",s,d,d,s,yellow,yellow,yellow,full,empty,half,circle,triangle,square,grey,grey,grey,2.0,1.0,3.0,3.0,1.0,3,0,train,0,3,0.8166666666666667,3.0,2.0,1.0,2.0,"(1, 3, 3, 1)","(3, 2, 1, 2)",1.0,0.0,1.0,0.0
4,384591.0,386725.0,386548.0,386724.0,673646950eb7c31614a424bf,0.0,0.0,red_full_square_black.png,red_empty_square_black.png,green_empty_triangle_black.png,yellow_empty_triangle_white.png,yellow_empty_circle_black.png,4.0,1.0,2.0,1233.0,1294.0,168.0,1324.0,234.0,1.0,,,,,0.0,0,g,235.0,,,,0,0,1.0,451.0,234.0,2.0,4.0,"[(0, 2, 2, 0), (0, 0, 2, 0), (2, 0, 1, 0), (1, 0, 1, 2), (1, 0, 0, 0)]",d,s,d,s,yellow,green,red,empty,empty,empty,circle,triangle,square,black,black,black,7.0,3.0,1.0,3.0,1.0,4,0,train,0,4,0.8166666666666667,3.0,1.0,2.0,2.0,"(3, 1, 3, 1)","(3, 1, 2, 2)",1.0,1.0,0.0,0.0
5,397690.0,400491.0,400397.0,400490.0,673646950eb7c31614a424bf,0.0,0.0,green_empty_square_grey.png,green_half_square_black.png,red_full_square_grey.png,green_full_square_white.png,yellow_full_circle_grey.png,4.0,2.0,2.0,1658.0,1614.0,87.0,970.0,134.0,2.0,,,,,0.0,0,g,124.0,,,,0,0,1.0,701.0,134.0,2.0,4.0,"[(2, 0, 2, 1), (2, 1, 2, 0), (0, 2, 2, 1), (2, 2, 2, 2), (1, 2, 0, 1)]",s,d,s,d,green,green,green,full,empty,half,square,square,square,white,grey,black,1.0,1.0,3.0,1.0,3.0,5,0,train,0,5,0.8166666666666667,2.0,2.0,1.0,2.0,"(1, 3, 1, 3)","(2, 2, 1, 2)",0.0,0.0,1.0,0.0
6,411307.0,413125.0,412928.0,413124.0,673646950eb7c31614a424bf,1.0,0.0,green_full_circle_white.png,green_empty_square_grey.png,yellow_half_triangle_black.png,green_half_circle_black.png,red_half_square_black.png,5.0,2.0,2.0,1819.0,1372.0,196.0,1484.0,345.0,2.0,,,,,0.0,1,s,345.0,,,,0,0,1.0,451.0,345.0,2.0,4.0,"[(2, 2, 0, 2), (2, 0, 2, 1), (1, 1, 1, 0), (2, 1, 0, 0), (0, 1, 2, 0)]",d,s,d,s,red,green,yellow,half,half,half,square,circle,triangle,black,black,black,9.0,3.0,1.0,3.0,1.0,6,1,train,1,6,0.8166666666666667,3.0,1.0,3.0,1.0,"(3, 1, 3, 1)","(3, 1, 3, 1)",1.0,1.0,1.0,1.0
7,424140.0,427691.0,427165.0,427690.0,673646950eb7c31614a424bf,0.0,0.0,green_full_square_black.png,red_empty_square_black.png,green_half_triangle_grey.png,green_full_circle_black.png,yellow_half_square_black.png,4.0,2.0,2.0,1106.0,911.0,525.0,1487.0,134.0,2.0,,,,,0.0,1,s,125.0,,,,0,0,1.0,1567.0000000000582,134.0,2.0,4.0,"[(2, 2, 2, 0), (0, 0, 2, 0), (2, 1, 1, 1), (2, 2, 0, 0), (1, 1, 2, 0)]",d,d,s,s,yellow,green,red,half,full,empty,square,square,square,black,black,black,2.0,3.0,3.0,1.0,1.0,7,0,train,1,7,0.8166666666666667,1.0,2.0,3.0,2.0,"(3, 3, 1, 1)","(1, 2, 3, 2)",1.0,0.0,1.0,0.0
8,438123.0,441707.0,441148.0,441707.0,673646950eb7c31614a424bf,1.0,0.0,green_empty_circle_grey.png,yellow_empty_square_white.png,yellow_empty_square_grey.png,green_half_square_grey.png,red_empty_triangle_grey.png,5.0,2.0,2.0,1270.0,1047.0,553.0,511.0,135.0,2.0,,,,,0.0,1,s,135.0,,,,0,0,1.0,1451.0000000000582,135.0,2.0,4.0,"[(2, 0, 0, 1), (1, 0, 2, 2), (1, 0, 2, 1), (2, 1, 2, 1), (0, 0, 1, 1)]",d,s,d,s,red,green,yellow,empty,empty,empty,triangle,circle,square,grey,grey,grey,4.0,3.0,1.0,3.0,1.0,8,1,train,2,8,0.8166666666666667,3.0,1.0,3.0,1.0,"(3, 1, 3, 1)","(3, 1, 3, 1)",1.0,1.0,1.0,1.0
9,451623.0,453357.0,453062.0,453356.0,673646950eb7c31614a424bf,1.0,0.0,yellow_full_square_black.png,yellow_full_triangle_grey.png,yellow_full_circle_white.png,yellow_empty_triangle_grey.png,green_half_triangle_grey.png,3.0,3.0,3.0,1622.0,1347.0,279.0,1264.0,123.0,3.0,,,,,0.0,1,s,123.0,,,,0,0,1.0,650.0000000000582,123.0,3.0,4.0,"[(1, 2, 2, 0), (1, 2, 1, 1), (1, 2, 0, 2), (1, 0, 1, 1), (2, 1, 1, 1)]",s,s,d,d,yellow,yellow,yellow,full,full,full,square,circle,triangle,black,white,grey,0.0,1.0,1.0,3.0,3.0,9,1,train,3,9,0.8166666666666667,1.0,1.0,3.0,3.0,"(1, 1, 3, 3)","(1, 1, 3, 3)",1.0,1.0,1.0,1.0
10,464140.0,465507.0,465332.0,465506.0,673646950eb7c31614a424bf,1.0,0.0,red_empty_square_grey.png,green_empty_circle_grey.png,yellow_empty_triangle_grey.png,yellow_empty_circle_black.png,yellow_full_triangle_grey.png,3.0,3.0,3.0,994.0,1098.0,163.0,818.0,123.0,3.0,,,,,0.0,1,s,123.0,,,,0,0,1.0,434.0,123.0,3.0,4.0,"[(0, 0, 2, 1), (2, 0, 0, 1), (1, 0, 1, 1), (1, 0, 0, 0), (1, 2, 1, 1)]",d,s,d,s,red,yellow,green,empty,empty,empty,square,triangle,circle,grey,grey,grey,0.0,3.0,1.0,3.0,1.0,10,1,train,4,10,0.8166666666666667,3.0,1.0,3.0,1.0,"(3, 1, 3, 1)","(3, 1, 3, 1)",1.0,1.0,1.0,1.0
11,475006.0,478640.0,478165.0,478640.0,673646950eb7c31614a424bf,0.0,0.0,red_empty_triangle_white.png,yellow_empty_square_black.png,green_full_square_black.png,red_half_square_black.png,green_half_square_black.png,1.0,2.0,2.0,1058.0,875.0,466.0,1423.0,123.0,2.0,,,,,0.0,0,g,234.0,,,,0,0,1.0,967.0,231.0,2.0,4.0,"[(0, 0, 1, 2), (1, 0, 2, 0), (2, 2, 2, 0), (0, 1, 2, 0), (2, 1, 2, 0)]",d,d,s,s,red,green,yellow,half,full,empty,square,square,square,black,black,black,6.0,3.0,3.0,1.0,1.0,11,0,train,4,11,0.8166666666666667,3.0,2.0,2.0,2.0,"(3, 3, 1, 1)","(3, 2, 2, 2)",1.0,0.0,0.0,0.0
12,488806.0,491390.0,490764.0,491389.0,673646950eb7c31614a424bf,0.0,0.0,red_empty_circle_black.png,yellow_full_square_black.png,green_full_square_grey.png,red_empty_square_black.png,green_half_square_black.png,4.0,1.0,2.0,1036.0,878.0,616.0,1235.0,234.0,1.0,,,,,0.0,0,g,245.0,,,,0,0,1.0,1133.0,234.0,2.0,4.0,"[(0, 0, 0, 0), (1, 2, 2, 0), (2, 2, 2, 1), (0, 0, 2, 0), (2, 1, 2, 0)]",d,d,s,s,green,red,yellow,half,empty,full,square,square,square,black,black,black,8.0,3.0,3.0,1.0,1.0,12,0,train,4,12,0.8166666666666667,3.0,2.0,1.0,2.0,"(3, 3, 1, 1)","(3, 2, 1, 2)",1.0,0.0,1.0,0.0
13,501473.0,504757.0,504513.0,504757.0,673646950eb7c31614a424bf,0.0,0.0,green_empty_circle_white.png,yellow_full_triangle_white.png,yellow_full_triangle_grey.png,yellow_full_square_white.png,yellow_full_circle_black.png,4.0,2.0,2.0,1575.0,1017.0,242.0,649.0,234.0,2.0,,,,,0.0,1,s,345.0,,,,0,0,1.0,652.0,234.0,2.0,4.0,"[(2, 0, 0, 2), (1, 2, 1, 2), (1, 2, 1, 1), (1, 2, 2, 2), (1, 2, 0, 0)]",s,s,d,d,yellow,yellow,yellow,full,full,full,circle,square,triangle,black,white,grey,9.0,1.0,1.0,3.0,3.0,13,0,train,4,13,0.8166666666666667,1.0,1.0,2.0,2.0,"(1, 1, 3, 3)","(1, 1, 2, 2)",1.0,1.0,0.0,0.0
14,514889.0,516740.0,516478.0,516739.0,673646950eb7c31614a424bf,1.0,0.0,yellow_half_circle_white.png,red_full_circle_black.png,red_half_circle_grey.png,red_empty_circle_white.png,green_empty_square_grey.png,4.0,4.0,3.0,1098.0,1091.0,257.0,1138.0,234.0,4.0,,,,,0.0,1,s,234.0,,,,0,0,1.0,567.0,234.0,3.0,4.0,"[(1, 1, 0, 2), (0, 2, 0, 0), (0, 1, 0, 1), (0, 0, 0, 2), (2, 0, 2, 1)]",s,d,s,d,red,red,red,empty,half,full,circle,circle,circle,white,grey,black,6.0,1.0,3.0,1.0,3.0,14,1,train,5,14,0.8166666666666667,1.0,3.0,1.0,3.0,"(1, 3, 1, 3)","(1, 3, 1, 3)",1.0,1.0,1.0,1.0
15,526756.0,529973.0,529446.0,529972.0,673646950eb7c31614a424bf,0.0,0.0,green_empty_square_grey.png,red_full_circle_white.png,red_empty_triangle_black.png,yellow_empty_circle_grey.png,red_empty_triangle_grey.png,2.0,3.0,2.0,1130.0,975.0,519.0,657.0,235.0,3.0,,,,,0.0,1,s,145.0,,,,0,0,1.0,1350.0,352.0,2.0,4.0,"[(2, 0, 2, 1), (0, 2, 0, 2), (0, 0, 1, 0), (1, 0, 0, 1), (0, 0, 1, 1)]",d,s,d,s,red,yellow,green,empty,empty,empty,triangle,circle,square,grey,grey,grey,5.0,3.0,1.0,3.0,1.0,15,0,train,5,15,0.8166666666666667,1.0,2.0,2.0,3.0,"(3, 1, 3, 1)","(1, 2, 2, 3)",1.0,0.0,0.0,1.0
16,539489.0,542923.0,542796.0,542922.0,673646950eb7c31614a424bf,1.0,0.0,green_empty_circle_grey.png,red_full_square_grey.png,red_empty_square_grey.png,green_empty_square_black.png,yellow_empty_square_white.png,5.0,3.0,2.0,1058.0,933.0,117.0,953.0,345.0,3.0,,,,,0.0,1,s,345.0,,,,0,0,1.0,834.0,345.0,2.0,4.0,"[(2, 0, 0, 1), (0, 2, 2, 1), (0, 0, 2, 1), (2, 0, 2, 0), (1, 0, 2, 2)]",d,s,s,d,yellow,green,red,empty,empty,empty,square,square,square,white,black,grey,9.0,3.0,1.0,1.0,3.0,16,1,train,6,16,0.8166666666666667,3.0,1.0,1.0,3.0,"(3, 1, 1, 3)","(3, 1, 1, 3)",1.0,1.0,1.0,1.0
17,552906.0,554323.0,554029.0,554322.0,673646950eb7c31614a424bf,1.0,0.0,green_full_circle_white.png,yellow_empty_square_grey.png,red_empty_square_white.png,green_empty_square_black.png,red_half_triangle_white.png,4.0,3.0,3.0,1262.0,1167.0,288.0,682.0,234.0,3.0,,,,,0.0,1,s,234.0,,,,0,0,1.0,634.0,234.0,3.0,4.0,"[(2, 2, 0, 2), (1, 0, 2, 1), (0, 0, 2, 2), (2, 0, 2, 0), (0, 1, 1, 2)]",d,s,s,d,green,red,yellow,empty,empty,empty,square,square,square,black,white,grey,6.0,3.0,1.0,1.0,3.0,17,1,train,7,17,0.8166666666666667,3.0,1.0,1.0,3.0,"(3, 1, 1, 3)","(3, 1, 1, 3)",1.0,1.0,1.0,1.0
18,564122.0,566440.0,565945.0,566440.0,673646950eb7c31614a424bf,1.0,0.0,red_full_circle_white.png,red_full_triangle_grey.png,green_empty_circle_white.png,red_full_square_black.png,yellow_half_square_white.png,4.0,4.0,4.0,1375.0,1068.0,494.0,816.0,124.0,4.0,,,,,0.0,1,s,124.0,,,,0,0,1.0,1068.0,124.0,4.0,4.0,"[(0, 2, 0, 2), (0, 2, 1, 1), (2, 0, 0, 2), (0, 2, 2, 0), (1, 1, 2, 2)]",s,s,d,d,red,red,red,full,full,full,square,circle,triangle,black,white,grey,1.0,1.0,1.0,3.0,3.0,18,1,train,8,18,0.8166666666666667,1.0,1.0,3.0,3.0,"(1, 1, 3, 3)","(1, 1, 3, 3)",1.0,1.0,1.0,1.0
19,576372.0,578807.0,578526.0,578806.0,673646950eb7c31614a424bf,0.0,0.0,yellow_empty_triangle_grey.png,green_empty_square_grey.png,red_empty_square_black.png,red_full_square_grey.png,yellow_half_square_grey.png,4.0,2.0,2.0,1111.0,956.0,280.0,689.0,234.0,2.0,,,,,0.0,1,s,245.0,,,,0,0,1.0,701.0,234.0,2.0,4.0,"[(1, 0, 1, 1), (2, 0, 2, 1), (0, 0, 2, 0), (0, 2, 2, 1), (1, 1, 2, 1)]",d,d,s,s,yellow,red,green,half,full,empty,square,square,square,grey,grey,grey,8.0,3.0,3.0,1.0,1.0,19,0,train,8,19,0.8166666666666667,2.0,2.0,1.0,2.0,"(3, 3, 1, 1)","(2, 2, 1, 2)",0.0,0.0,1.0,0.0
20,588222.0,590723.0,590233.0,590722.0,673646950eb7c31614a424bf,1.0,0.0,red_empty_square_grey.png,yellow_half_circle_white.png,yellow_half_square_black.png,yellow_full_circle_black.png,yellow_half_triangle_grey.png,5.0,3.0,3.0,953.0,807.0,482.0,757.0,235.0,3.0,,,,,0.0,1,s,235.0,,,,0,0,1.0,884.0,235.0,3.0,4.0,"[(0, 0, 2, 1), (1, 1, 0, 2), (1, 1, 2, 0), (1, 2, 0, 0), (1, 1, 1, 1)]",s,s,d,d,yellow,yellow,yellow,half,half,half,triangle,square,circle,grey,black,white,7.0,1.0,1.0,3.0,3.0,20,1,train,9,20,0.8166666666666667,1.0,1.0,3.0,3.0,"(1, 1, 3, 3)","(1, 1, 3, 3)",1.0,1.0,1.0,1.0
21,600388.0,602239.0,601645.0,602238.0,673646950eb7c31614a424bf,1.0,0.0,yellow_full_triangle_white.png,yellow_full_square_grey.png,yellow_half_circle_white.png,green_empty_square_grey.png,yellow_full_circle_black.png,5.0,3.0,3.0,923.0,1150.0,585.0,683.0,125.0,3.0,,,,,0.0,1,s,125.0,,,,0,0,1.0,950.0,125.0,3.0,4.0,"[(1, 2, 1, 2), (1, 2, 2, 1), (1, 1, 0, 2), (2, 0, 2, 1), (1, 2, 0, 0)]",s,s,d,d,yellow,yellow,yellow,full,full,full,circle,triangle,square,black,white,grey,2.0,1.0,1.0,3.0,3.0,21,1,train,10,21,0.8166666666666667,1.0,1.0,3.0,3.0,"(1, 1, 3, 3)","(1, 1, 3, 3)",1.0,1.0,1.0,1.0
22,611138.0,613489.0,612945.0,613488.0,673646950eb7c31614a424bf,1.0,0.0,green_full_circle_grey.png,red_full_triangle_white.png,red_empty_triangle_grey.png,yellow_empty_triangle_grey.png,red_half_triangle_black.png,5.0,3.0,3.0,1451.0,540.0,529.0,640.0,235.0,3.0,,,,,0.0,1,s,235.0,,,,0,0,1.0,1250.0,235.0,3.0,4.0,"[(2, 2, 0, 1), (0, 2, 1, 2), (0, 0, 1, 1), (1, 0, 1, 1), (0, 1, 1, 0)]",s,d,s,d,red,red,red,half,empty,full,triangle,triangle,triangle,black,grey,white,7.0,1.0,3.0,1.0,3.0,22,1,train,11,22,0.8166666666666667,1.0,3.0,1.0,3.0,"(1, 3, 1, 3)","(1, 3, 1, 3)",1.0,1.0,1.0,1.0
23,623555.0,625790.0,625312.0,625789.0,673646950eb7c31614a424bf,0.0,0.0,green_half_square_black.png,red_half_triangle_black.png,green_empty_circle_black.png,green_half_square_grey.png,green_full_triangle_black.png,4.0,3.0,2.0,1231.0,1194.0,477.0,658.0,124.0,3.0,,,,,0.0,1,s,135.0,,,,0,0,1.0,968.0,124.0,2.0,4.0,"[(2, 1, 2, 0), (0, 1, 1, 0), (2, 0, 0, 0), (2, 1, 2, 1), (2, 2, 1, 0)]",s,d,d,s,green,green,green,full,half,empty,triangle,square,circle,black,black,black,4.0,1.0,3.0,3.0,1.0,23,0,train,11,23,0.8166666666666667,2.0,1.0,2.0,2.0,"(1, 3, 3, 1)","(2, 1, 2, 2)",0.0,1.0,0.0,0.0
24,635420.0,638589.0,638463.0,638588.0,673646950eb7c31614a424bf,0.0,0.0,yellow_half_triangle_grey.png,red_empty_square_grey.png,yellow_empty_triangle_black.png,yellow_full_triangle_white.png,yellow_empty_triangle_grey.png,5.0,3.0,2.0,1766.0,946.0,112.0,639.0,345.0,3.0,,,,,0.0,1,s,134.0,,,,0,0,1.0,350.9999999998836,345.0,2.0,4.0,"[(1, 1, 1, 1), (0, 0, 2, 1), (1, 0, 1, 0), (1, 2, 1, 2), (1, 0, 1, 1)]",s,d,s,d,yellow,yellow,yellow,full,half,empty,triangle,triangle,triangle,white,grey,black,3.0,1.0,3.0,1.0,3.0,24,0,train,11,24,0.8166666666666667,1.0,2.0,1.0,3.0,"(1, 3, 1, 3)","(1, 2, 1, 3)",1.0,0.0,1.0,1.0
25,648804.0,653340.0,653198.0,653339.0,673646950eb7c31614a424bf,0.0,0.0,red_empty_triangle_black.png,green_half_circle_white.png,green_empty_circle_black.png,green_full_circle_grey.png,yellow_full_circle_grey.png,1.0,2.0,2.0,1312.0,1009.0,141.0,1135.0,123.0,2.0,,,,,0.0,0,g,234.0,,,,0,0,1.0,1269.0,321.0,2.0,4.0,"[(0, 0, 1, 0), (2, 1, 0, 2), (2, 0, 0, 0), (2, 2, 0, 1), (1, 2, 0, 1)]",s,d,s,d,green,green,green,full,empty,half,circle,circle,circle,grey,black,white,6.0,1.0,3.0,1.0,3.0,25,0,train,11,25,0.8166666666666667,2.0,2.0,2.0,2.0,"(1, 3, 1, 3)","(2, 2, 2, 2)",0.0,0.0,0.0,0.0
26,663438.0,666656.0,665976.0,666655.0,673646950eb7c31614a424bf,0.0,0.0,yellow_empty_square_grey.png,red_full_square_white.png,green_empty_circle_white.png,red_empty_circle_white.png,red_half_triangle_white.png,4.0,3.0,2.0,1886.0,849.0,679.0,1061.0,134.0,3.0,,,,,0.0,1,s,245.0,,,,0,0,1.0,2135.0000000001164,134.0,2.0,4.0,"[(1, 0, 2, 1), (0, 2, 2, 2), (2, 0, 0, 2), (0, 0, 0, 2), (0, 1, 1, 2)]",s,d,d,s,red,red,red,half,empty,full,triangle,circle,square,white,white,white,8.0,1.0,3.0,3.0,1.0,26,0,train,11,26,0.8166666666666667,3.0,1.0,2.0,2.0,"(1, 3, 3, 1)","(3, 1, 2, 2)",1.0,1.0,0.0,0.0
27,677571.0,679605.0,679410.0,679604.0,673646950eb7c31614a424bf,0.0,0.0,yellow_full_triangle_black.png,green_empty_circle_black.png,green_full_square_black.png,green_half_triangle_black.png,red_empty_triangle_white.png,5.0,2.0,2.0,1102.0,1174.0,180.0,650.0,145.0,2.0,,,,,0.0,1,s,234.0,,,,0,0,1.0,900.0,145.0,2.0,4.0,"[(1, 2, 1, 0), (2, 0, 0, 0), (2, 2, 2, 0), (2, 1, 1, 0), (0, 0, 1, 2)]",s,d,d,s,green,green,green,half,full,empty,triangle,square,circle,black,black,black,6.0,1.0,3.0,3.0,1.0,27,0,train,11,27,0.8166666666666667,3.0,3.0,1.0,2.0,"(1, 3, 3, 1)","(3, 3, 1, 2)",1.0,1.0,1.0,0.0
28,688988.0,691354.0,690561.0,691354.0,673646950eb7c31614a424bf,0.0,0.0,red_empty_square_grey.png,yellow_full_square_grey.png,red_empty_circle_white.png,green_empty_square_grey.png,green_half_square_grey.png,4.0,2.0,2.0,1716.0,863.0,787.0,794.0,134.0,2.0,,,,,0.0,0,g,125.0,,,,0,0,1.0,1550.0,134.0,2.0,4.0,"[(0, 0, 2, 1), (1, 2, 2, 1), (0, 0, 0, 2), (2, 0, 2, 1), (2, 1, 2, 1)]",d,d,s,s,green,red,yellow,half,empty,full,square,square,square,grey,grey,grey,2.0,3.0,3.0,1.0,1.0,28,0,train,11,28,0.8166666666666667,2.0,1.0,2.0,2.0,"(3, 3, 1, 1)","(2, 1, 2, 2)",0.0,1.0,0.0,0.0
29,701404.0,702905.0,702410.0,702904.0,673646950eb7c31614a424bf,1.0,0.0,yellow_full_square_grey.png,yellow_full_circle_white.png,green_full_triangle_grey.png,yellow_empty_triangle_white.png,yellow_full_triangle_black.png,5.0,3.0,2.0,1301.0,768.0,489.0,305.0,125.0,3.0,,,,,0.0,1,s,125.0,,,,0,0,1.0,834.0,125.0,2.0,4.0,"[(1, 2, 2, 1), (1, 2, 0, 2), (2, 2, 1, 1), (1, 0, 1, 2), (1, 2, 1, 0)]",s,s,d,d,yellow,yellow,yellow,full,full,full,triangle,square,circle,black,grey,white,2.0,1.0,1.0,3.0,3.0,29,1,train,12,29,0.8166666666666667,1.0,1.0,3.0,3.0,"(1, 1, 3, 3)","(1, 1, 3, 3)",1.0,1.0,1.0,1.0
30,722520.0,724188.0,723995.0,724187.0,673646950eb7c31614a424bf,1.0,0.0,green_half_square_black.png,green_empty_square_black.png,yellow_half_circle_black.png,red_full_square_white.png,red_half_triangle_black.png,5.0,3.0,2.0,2356.0,788.0,184.0,849.0,135.0,3.0,,,,,0.0,1,s,135.0,,,,0,0,2.0,983.9999999998836,135.0,2.0,4.0,"[(2, 1, 2, 0), (2, 0, 2, 0), (1, 1, 0, 0), (0, 2, 2, 2), (0, 1, 1, 0)]",d,s,d,s,red,green,yellow,half,half,half,triangle,square,circle,black,black,black,4.0,3.0,1.0,3.0,1.0,30,1,train,13,0,0.8166666666666667,3.0,1.0,3.0,1.0,"(3, 1, 3, 1)","(3, 1, 3, 1)",1.0,1.0,1.0,1.0
31,735388.0,737421.0,737172.0,737420.0,673646950eb7c31614a424bf,1.0,0.0,red_half_triangle_grey.png,green_half_triangle_black.png,yellow_half_triangle_white.png,green_full_circle_black.png,green_half_square_white.png,3.0,3.0,3.0,774.0,1197.0,241.0,616.0,123.0,3.0,,,,,0.0,1,s,123.0,,,,0,0,2.0,633.0,123.0,3.0,4.0,"[(0, 1, 1, 1), (2, 1, 1, 0), (1, 1, 1, 2), (2, 2, 0, 0), (2, 1, 2, 2)]",d,s,s,d,red,yellow,green,half,half,half,triangle,triangle,triangle,grey,white,black,0.0,3.0,1.0,1.0,3.0,31,1,train,14,1,0.8166666666666667,3.0,1.0,1.0,3.0,"(3, 1, 1, 3)","(3, 1, 1, 3)",1.0,1.0,1.0,1.0
32,746887.0,750788.0,750145.0,750787.0,673646950eb7c31614a424bf,0.0,0.0,green_full_triangle_white.png,green_full_circle_white.png,green_full_square_black.png,green_full_circle_grey.png,yellow_half_triangle_grey.png,4.0,2.0,2.0,1143.0,1272.0,627.0,593.0,234.0,2.0,,,,,0.0,0,g,134.0,,,,0,0,2.0,1368.0,234.0,2.0,4.0,"[(2, 2, 1, 2), (2, 2, 0, 2), (2, 2, 2, 0), (2, 2, 0, 1), (1, 1, 1, 1)]",s,s,d,d,green,green,green,full,full,full,circle,triangle,square,grey,white,black,3.0,1.0,1.0,3.0,3.0,32,0,train,14,2,0.8166666666666667,1.0,1.0,2.0,3.0,"(1, 1, 3, 3)","(1, 1, 2, 3)",1.0,1.0,0.0,1.0
33,760270.0,763371.0,762344.0,763370.0,673646950eb7c31614a424bf,0.0,0.0,red_half_square_white.png,red_half_square_grey.png,red_half_circle_black.png,yellow_empty_square_white.png,red_half_triangle_white.png,5.0,2.0,2.0,1008.0,930.0,1019.0,934.0,125.0,2.0,,,,,0.0,0,g,235.0,,,,0,0,2.0,1733.9999999998836,125.0,2.0,4.0,"[(0, 1, 2, 2), (0, 1, 2, 1), (0, 1, 0, 0), (1, 0, 2, 2), (0, 1, 1, 2)]",s,s,d,d,red,red,red,half,half,half,triangle,circle,square,white,black,grey,7.0,1.0,1.0,3.0,3.0,33,0,train,14,3,0.8166666666666667,1.0,1.0,2.0,2.0,"(1, 1, 3, 3)","(1, 1, 2, 2)",1.0,1.0,0.0,0.0
34,773270.0,776654.0,776060.0,776653.0,673646950eb7c31614a424bf,1.0,0.0,yellow_full_circle_black.png,green_full_triangle_white.png,yellow_half_triangle_white.png,green_empty_square_grey.png,red_empty_triangle_white.png,5.0,3.0,2.0,2541.0,1145.0,593.0,967.0,235.0,3.0,,,,,0.0,0,g,235.0,,,,0,0,2.0,967.0,235.0,2.0,4.0,"[(1, 2, 0, 0), (2, 2, 1, 2), (1, 1, 1, 2), (2, 0, 2, 1), (0, 0, 1, 2)]",d,d,s,s,red,yellow,green,empty,half,full,triangle,triangle,triangle,white,white,white,7.0,3.0,3.0,1.0,1.0,34,1,train,15,4,0.8166666666666667,3.0,3.0,1.0,1.0,"(3, 3, 1, 1)","(3, 3, 1, 1)",1.0,1.0,1.0,1.0
35,787787.0,791171.0,790961.0,791170.0,673646950eb7c31614a424bf,0.0,0.0,yellow_full_square_white.png,yellow_empty_triangle_white.png,red_half_square_white.png,yellow_empty_square_grey.png,yellow_half_circle_white.png,5.0,3.0,2.0,656.0,813.0,199.0,851.0,245.0,3.0,,,,,0.0,0,g,125.0,,,,0,0,2.0,1083.0,245.0,2.0,4.0,"[(1, 2, 2, 2), (1, 0, 1, 2), (0, 1, 2, 2), (1, 0, 2, 1), (1, 1, 0, 2)]",s,d,d,s,yellow,yellow,yellow,half,full,empty,circle,square,triangle,white,white,white,2.0,1.0,3.0,3.0,1.0,35,0,train,15,5,0.8166666666666667,1.0,2.0,3.0,2.0,"(1, 3, 3, 1)","(1, 2, 3, 2)",1.0,0.0,1.0,0.0
36,800403.0,804104.0,803674.0,804103.0,673646950eb7c31614a424bf,0.0,0.0,yellow_empty_square_white.png,yellow_half_triangle_white.png,red_full_triangle_white.png,yellow_full_circle_white.png,yellow_full_circle_black.png,5.0,3.0,2.0,1162.0,914.0,415.0,794.0,345.0,3.0,,,,,0.0,0,g,124.0,,,,0,0,2.0,884.0,345.0,2.0,4.0,"[(1, 0, 2, 2), (1, 1, 1, 2), (0, 2, 1, 2), (1, 2, 0, 2), (1, 2, 0, 0)]",s,d,d,s,yellow,yellow,yellow,full,empty,half,circle,square,triangle,white,white,white,1.0,1.0,3.0,3.0,1.0,36,0,train,15,6,0.8166666666666667,2.0,1.0,2.0,2.0,"(1, 3, 3, 1)","(2, 1, 2, 2)",0.0,1.0,0.0,0.0
37,813836.0,818737.0,818080.0,818736.0,673646950eb7c31614a424bf,0.0,0.0,green_empty_square_black.png,green_half_square_grey.png,red_full_circle_grey.png,green_full_square_grey.png,green_half_square_white.png,5.0,1.0,2.0,956.0,978.0,649.0,943.0,135.0,1.0,,,,,0.0,0,g,145.0,,,,0,0,2.0,2417.0,135.0,2.0,4.0,"[(2, 0, 2, 0), (2, 1, 2, 1), (0, 2, 0, 1), (2, 2, 2, 1), (2, 1, 2, 2)]",s,d,s,d,green,green,green,half,full,empty,square,square,square,white,grey,black,5.0,1.0,3.0,1.0,3.0,37,0,train,15,7,0.8166666666666667,2.0,3.0,2.0,3.0,"(1, 3, 1, 3)","(2, 3, 2, 3)",0.0,1.0,0.0,1.0
38,829970.0,834421.0,834259.0,834420.0,673646950eb7c31614a424bf,0.0,0.0,green_full_triangle_white.png,red_half_triangle_white.png,red_full_square_black.png,red_empty_triangle_white.png,yellow_empty_triangle_white.png,5.0,2.0,2.0,807.0,2557.0,150.0,736.0,145.0,2.0,,,,,0.0,0,g,125.0,,,,0,0,2.0,1535.0,145.0,2.0,4.0,"[(2, 2, 1, 2), (0, 1, 1, 2), (0, 2, 2, 0), (0, 0, 1, 2), (1, 0, 1, 2)]",d,d,s,s,yellow,green,red,empty,full,half,triangle,triangle,triangle,white,white,white,2.0,3.0,3.0,1.0,1.0,38,0,train,15,8,0.8166666666666667,3.0,2.0,1.0,1.0,"(3, 3, 1, 1)","(3, 2, 1, 1)",1.0,0.0,1.0,1.0
39,843569.0,846103.0,845908.0,846103.0,673646950eb7c31614a424bf,1.0,0.0,red_half_triangle_white.png,red_empty_square_grey.png,green_full_square_white.png,yellow_full_circle_white.png,red_full_triangle_white.png,5.0,3.0,2.0,1407.0,776.0,189.0,1950.0,345.0,3.0,,,,,0.0,1,s,345.0,,,,0,0,2.0,484.0000000001164,345.0,2.0,4.0,"[(0, 1, 1, 2), (0, 0, 2, 1), (2, 2, 2, 2), (1, 2, 0, 2), (0, 2, 1, 2)]",d,s,d,s,red,yellow,green,full,full,full,triangle,circle,square,white,white,white,9.0,3.0,1.0,3.0,1.0,39,1,train,16,9,0.8166666666666667,3.0,1.0,3.0,1.0,"(3, 1, 3, 1)","(3, 1, 3, 1)",1.0,1.0,1.0,1.0
40,857586.0,859687.0,859260.0,859686.0,673646950eb7c31614a424bf,1.0,0.0,green_empty_circle_grey.png,yellow_empty_triangle_grey.png,yellow_half_triangle_white.png,yellow_empty_triangle_black.png,red_empty_square_grey.png,5.0,3.0,3.0,886.0,1324.0,411.0,572.0,125.0,3.0,,,,,0.0,1,s,125.0,,,,0,0,2.0,1134.0,125.0,3.0,4.0,"[(2, 0, 0, 1), (1, 0, 1, 1), (1, 1, 1, 2), (1, 0, 1, 0), (0, 0, 2, 1)]",d,s,d,s,red,green,yellow,empty,empty,empty,square,circle,triangle,grey,grey,grey,2.0,3.0,1.0,3.0,1.0,40,1,train,17,10,0.8166666666666667,3.0,1.0,3.0,1.0,"(3, 1, 3, 1)","(3, 1, 3, 1)",1.0,1.0,1.0,1.0
41,868936.0,871471.0,870977.0,871470.0,673646950eb7c31614a424bf,1.0,0.0,red_empty_triangle_white.png,green_empty_circle_white.png,yellow_full_square_white.png,yellow_empty_square_white.png,red_empty_square_black.png,4.0,2.0,2.0,850.0,993.0,476.0,1135.0,124.0,2.0,,,,,0.0,0,g,124.0,,,,0,0,2.0,901.0,124.0,2.0,4.0,"[(0, 0, 1, 2), (2, 0, 0, 2), (1, 2, 2, 2), (1, 0, 2, 2), (0, 0, 2, 0)]",d,s,d,s,yellow,red,green,empty,empty,empty,square,triangle,circle,white,white,white,1.0,3.0,1.0,3.0,1.0,41,1,train,18,11,0.8166666666666667,3.0,1.0,3.0,1.0,"(3, 1, 3, 1)","(3, 1, 3, 1)",1.0,1.0,1.0,1.0
42,882102.0,884570.0,884378.0,884569.0,673646950eb7c31614a424bf,1.0,0.0,yellow_empty_triangle_black.png,green_empty_triangle_black.png,red_half_square_white.png,yellow_full_triangle_white.png,yellow_half_triangle_grey.png,5.0,2.0,2.0,1697.0,1839.0,186.0,635.0,145.0,2.0,,,,,0.0,0,g,145.0,,,,0,0,2.0,1283.9999999998836,145.0,2.0,4.0,"[(1, 0, 1, 0), (2, 0, 1, 0), (0, 1, 2, 2), (1, 2, 1, 2), (1, 1, 1, 1)]",s,d,s,d,yellow,yellow,yellow,half,full,empty,triangle,triangle,triangle,grey,white,black,5.0,1.0,3.0,1.0,3.0,42,1,train,19,12,0.8166666666666667,1.0,3.0,1.0,3.0,"(1, 3, 1, 3)","(1, 3, 1, 3)",1.0,1.0,1.0,1.0
43,894569.0,897970.0,897408.0,897969.0,673646950eb7c31614a424bf,1.0,0.0,green_half_square_black.png,green_half_triangle_grey.png,red_empty_triangle_grey.png,green_half_circle_white.png,yellow_full_triangle_black.png,4.0,2.0,2.0,1639.0,857.0,558.0,733.0,124.0,2.0,,,,,0.0,0,g,124.0,,,,0,0,2.0,933.9999999998836,124.0,2.0,4.0,"[(2, 1, 2, 0), (2, 1, 1, 1), (0, 0, 1, 1), (2, 1, 0, 2), (1, 2, 1, 0)]",s,s,d,d,green,green,green,half,half,half,circle,square,triangle,white,black,grey,1.0,1.0,1.0,3.0,3.0,43,1,train,20,13,0.8166666666666667,1.0,1.0,3.0,3.0,"(1, 1, 3, 3)","(1, 1, 3, 3)",1.0,1.0,1.0,1.0
44,907969.0,910369.0,909857.0,910368.0,673646950eb7c31614a424bf,1.0,0.0,red_half_triangle_grey.png,red_half_circle_black.png,yellow_empty_circle_black.png,red_full_square_white.png,green_full_circle_black.png,5.0,2.0,2.0,907.0,840.0,509.0,617.0,235.0,2.0,,,,,0.0,0,g,235.0,,,,0,0,2.0,1017.0,235.0,2.0,4.0,"[(0, 1, 1, 1), (0, 1, 0, 0), (1, 0, 0, 0), (0, 2, 2, 2), (2, 2, 0, 0)]",d,d,s,s,green,yellow,red,full,empty,half,circle,circle,circle,black,black,black,7.0,3.0,3.0,1.0,1.0,44,1,train,21,14,0.8166666666666667,3.0,3.0,1.0,1.0,"(3, 3, 1, 1)","(3, 3, 1, 1)",1.0,1.0,1.0,1.0
45,919669.0,924153.0,923208.0,924152.0,673646950eb7c31614a424bf,0.0,0.0,green_empty_circle_grey.png,red_empty_triangle_black.png,yellow_empty_square_grey.png,green_half_triangle_grey.png,green_full_square_grey.png,3.0,2.0,2.0,682.0,959.0,940.0,560.0,123.0,2.0,,,,,0.0,0,g,145.0,,,,0,0,2.0,1417.0,123.0,2.0,4.0,"[(2, 0, 0, 1), (0, 0, 1, 0), (1, 0, 2, 1), (2, 1, 1, 1), (2, 2, 2, 1)]",s,d,d,s,green,green,green,full,half,empty,square,triangle,circle,grey,grey,grey,5.0,1.0,3.0,3.0,1.0,45,0,train,21,15,0.8166666666666667,3.0,1.0,3.0,2.0,"(1, 3, 3, 1)","(3, 1, 3, 2)",1.0,1.0,1.0,0.0
46,932918.0,935053.0,934845.0,935052.0,673646950eb7c31614a424bf,1.0,0.0,green_empty_square_white.png,red_full_circle_black.png,green_full_circle_white.png,yellow_full_circle_grey.png,green_half_triangle_grey.png,4.0,3.0,2.0,1064.0,725.0,207.0,740.0,234.0,3.0,,,,,0.0,1,s,234.0,,,,0,0,2.0,534.0,234.0,2.0,4.0,"[(2, 0, 2, 2), (0, 2, 0, 0), (2, 2, 0, 2), (1, 2, 0, 1), (2, 1, 1, 1)]",d,s,s,d,yellow,green,red,full,full,full,circle,circle,circle,grey,white,black,6.0,3.0,1.0,1.0,3.0,46,1,train,22,16,0.8166666666666667,3.0,1.0,1.0,3.0,"(3, 1, 1, 3)","(3, 1, 1, 3)",1.0,1.0,1.0,1.0
47,945052.0,948286.0,947843.0,948285.0,673646950eb7c31614a424bf,0.0,0.0,red_half_square_white.png,yellow_half_square_white.png,green_full_square_white.png,green_half_triangle_grey.png,red_empty_square_white.png,4.0,3.0,3.0,1496.0,1396.0,430.0,625.0,124.0,3.0,,,,,0.0,1,s,235.0,,,,0,0,2.0,967.0,124.0,3.0,4.0,"[(0, 1, 2, 2), (1, 1, 2, 2), (2, 2, 2, 2), (2, 1, 1, 1), (0, 0, 2, 2)]",d,d,s,s,red,green,yellow,empty,full,half,square,square,square,white,white,white,7.0,3.0,3.0,1.0,1.0,47,0,train,22,17,0.8166666666666667,3.0,1.0,2.0,2.0,"(3, 3, 1, 1)","(3, 1, 2, 2)",1.0,1.0,0.0,0.0
48,958518.0,963936.0,963308.0,963935.0,673646950eb7c31614a424bf,0.0,0.0,green_half_square_black.png,red_empty_square_black.png,yellow_full_square_white.png,yellow_full_square_black.png,green_empty_triangle_grey.png,2.0,2.0,2.0,1099.0,1322.0,624.0,283.0,234.0,2.0,,,,,0.0,0,g,124.0,,,,0,0,2.0,917.0,342.0,2.0,4.0,"[(2, 1, 2, 0), (0, 0, 2, 0), (1, 2, 2, 2), (1, 2, 2, 0), (2, 0, 1, 1)]",d,d,s,s,yellow,green,red,full,half,empty,square,square,square,black,black,black,1.0,3.0,3.0,1.0,1.0,48,0,train,22,18,0.8166666666666667,2.0,2.0,1.0,2.0,"(3, 3, 1, 1)","(2, 2, 1, 2)",0.0,0.0,1.0,0.0
49,973018.0,975269.0,975060.0,975268.0,673646950eb7c31614a424bf,1.0,0.0,yellow_full_square_white.png,green_full_circle_grey.png,red_half_triangle_white.png,green_full_square_grey.png,red_full_square_black.png,5.0,3.0,3.0,1097.0,922.0,202.0,712.0,145.0,3.0,,,,,0.0,1,s,145.0,,,,0,0,2.0,1317.0,145.0,3.0,4.0,"[(1, 2, 2, 2), (2, 2, 0, 1), (0, 1, 1, 2), (2, 2, 2, 1), (0, 2, 2, 0)]",d,s,s,d,red,green,yellow,full,full,full,square,square,square,black,grey,white,5.0,3.0,1.0,1.0,3.0,49,1,train,23,19,0.8166666666666667,3.0,1.0,1.0,3.0,"(3, 1, 1, 3)","(3, 1, 1, 3)",1.0,1.0,1.0,1.0
50,984801.0,988969.0,988428.0,988968.0,673646950eb7c31614a424bf,0.0,0.0,green_half_square_white.png,yellow_full_square_white.png,yellow_empty_triangle_black.png,yellow_empty_square_black.png,yellow_half_square_grey.png,2.0,2.0,3.0,2685.0,940.0,526.0,990.0,234.0,2.0,,,,,0.0,0,g,245.0,,,,0,0,2.0,2617.0,432.0,3.0,4.0,"[(2, 1, 2, 2), (1, 2, 2, 2), (1, 0, 1, 0), (1, 0, 2, 0), (1, 1, 2, 1)]",s,d,s,d,yellow,yellow,yellow,half,empty,full,square,square,square,grey,black,white,8.0,1.0,3.0,1.0,3.0,50,0,train,23,20,0.8166666666666667,1.0,2.0,2.0,2.0,"(1, 3, 1, 3)","(1, 2, 2, 2)",1.0,0.0,0.0,0.0
51,1000201.0,1002352.0,1002126.0,1002351.0,673646950eb7c31614a424bf,1.0,0.0,red_half_square_grey.png,green_half_triangle_white.png,yellow_empty_triangle_black.png,red_half_triangle_grey.png,yellow_half_triangle_black.png,5.0,3.0,3.0,872.0,772.0,220.0,333.0,245.0,3.0,,,,,0.0,1,s,245.0,,,,0,0,2.0,751.0,245.0,3.0,4.0,"[(0, 1, 2, 1), (2, 1, 1, 2), (1, 0, 1, 0), (0, 1, 1, 1), (1, 1, 1, 0)]",d,s,s,d,yellow,red,green,half,half,half,triangle,triangle,triangle,black,grey,white,8.0,3.0,1.0,1.0,3.0,51,1,train,24,21,0.8166666666666667,3.0,1.0,1.0,3.0,"(3, 1, 1, 3)","(3, 1, 1, 3)",1.0,1.0,1.0,1.0
52,1011151.0,1017302.0,1015392.0,1017301.0,673646950eb7c31614a424bf,0.0,0.0,red_full_square_white.png,red_empty_circle_white.png,red_half_triangle_white.png,red_full_triangle_black.png,yellow_empty_square_grey.png,3.0,2.0,2.0,1249.0,817.0,1909.0,310.0,134.0,2.0,,,,,0.0,0,g,123.0,,,,0,0,2.0,2851.0,143.0,2.0,4.0,"[(0, 2, 2, 2), (0, 0, 0, 2), (0, 1, 1, 2), (0, 2, 1, 0), (1, 0, 2, 1)]",s,d,d,s,red,red,red,full,half,empty,square,triangle,circle,white,white,white,0.0,1.0,3.0,3.0,1.0,52,0,train,24,22,0.8166666666666667,1.0,2.0,2.0,2.0,"(1, 3, 3, 1)","(1, 2, 2, 2)",1.0,0.0,0.0,0.0
53,1026534.0,1029502.0,1028920.0,1029501.0,673646950eb7c31614a424bf,0.0,0.0,red_half_circle_grey.png,red_full_circle_black.png,red_full_square_grey.png,red_full_triangle_white.png,yellow_empty_circle_black.png,5.0,3.0,3.0,982.0,889.0,570.0,313.0,125.0,3.0,,,,,0.0,1,s,234.0,,,,0,0,2.0,968.0000000001164,125.0,3.0,4.0,"[(0, 1, 0, 1), (0, 2, 0, 0), (0, 2, 2, 1), (0, 2, 1, 2), (1, 0, 0, 0)]",s,s,d,d,red,red,red,full,full,full,triangle,square,circle,white,grey,black,6.0,1.0,1.0,3.0,3.0,53,0,train,24,23,0.8166666666666667,2.0,3.0,1.0,2.0,"(1, 1, 3, 3)","(2, 3, 1, 2)",0.0,1.0,1.0,0.0
54,1038634.0,1042735.0,1041738.0,1042734.0,673646950eb7c31614a424bf,0.0,0.0,red_empty_triangle_grey.png,red_empty_square_white.png,green_half_triangle_grey.png,red_half_triangle_grey.png,yellow_full_triangle_grey.png,5.0,2.0,2.0,1192.0,1048.0,993.0,761.0,125.0,2.0,,,,,0.0,0,g,135.0,,,,0,0,2.0,1684.0,125.0,2.0,4.0,"[(0, 0, 1, 1), (0, 0, 2, 2), (2, 1, 1, 1), (0, 1, 1, 1), (1, 2, 1, 1)]",d,d,s,s,yellow,red,green,full,empty,half,triangle,triangle,triangle,grey,grey,grey,4.0,3.0,3.0,1.0,1.0,54,0,train,24,24,0.8166666666666667,2.0,2.0,2.0,2.0,"(3, 3, 1, 1)","(2, 2, 2, 2)",0.0,0.0,0.0,0.0
55,1053301.0,1059468.0,1059158.0,1059467.0,673646950eb7c31614a424bf,0.0,0.0,yellow_empty_circle_grey.png,green_half_square_grey.png,green_half_triangle_white.png,green_half_square_white.png,green_half_circle_black.png,4.0,1.0,2.0,1047.0,1814.0,304.0,927.0,234.0,1.0,,,,,0.0,0,g,235.0,,,,0,0,2.0,1135.0,234.0,2.0,4.0,"[(1, 0, 0, 1), (2, 1, 2, 1), (2, 1, 1, 2), (2, 1, 2, 2), (2, 1, 0, 0)]",s,s,d,d,green,green,green,half,half,half,circle,triangle,square,black,white,grey,7.0,1.0,1.0,3.0,3.0,55,0,train,24,25,0.8166666666666667,1.0,1.0,2.0,2.0,"(1, 1, 3, 3)","(1, 1, 2, 2)",1.0,1.0,0.0,0.0
56,1069151.0,1074318.0,1073570.0,1074317.0,673646950eb7c31614a424bf,0.0,0.0,green_empty_square_white.png,green_empty_square_grey.png,red_half_circle_white.png,green_empty_circle_white.png,green_empty_triangle_black.png,3.0,3.0,2.0,780.0,922.0,744.0,719.0,134.0,3.0,,,,,0.0,1,s,245.0,,,,0,0,2.0,1683.9999999997672,143.0,2.0,4.0,"[(2, 0, 2, 2), (2, 0, 2, 1), (0, 1, 0, 2), (2, 0, 0, 2), (2, 0, 1, 0)]",s,s,d,d,green,green,green,empty,empty,empty,triangle,circle,square,black,white,grey,8.0,1.0,1.0,3.0,3.0,56,0,train,24,26,0.8166666666666667,2.0,2.0,2.0,1.0,"(1, 1, 3, 3)","(2, 2, 2, 1)",0.0,0.0,0.0,1.0
57,1083451.0,1086718.0,1086458.0,1086717.0,673646950eb7c31614a424bf,1.0,0.0,green_empty_triangle_white.png,green_half_square_grey.png,green_empty_circle_grey.png,red_empty_circle_black.png,green_empty_square_black.png,5.0,3.0,2.0,816.0,839.0,249.0,2101.0,135.0,3.0,,,,,0.0,0,g,135.0,,,,0,0,2.0,1251.0,135.0,2.0,4.0,"[(2, 0, 1, 2), (2, 1, 2, 1), (2, 0, 0, 1), (0, 0, 0, 0), (2, 0, 2, 0)]",s,s,d,d,green,green,green,empty,empty,empty,square,triangle,circle,black,white,grey,4.0,1.0,1.0,3.0,3.0,57,1,train,25,27,0.8166666666666667,1.0,1.0,3.0,3.0,"(1, 1, 3, 3)","(1, 1, 3, 3)",1.0,1.0,1.0,1.0
58,1097367.0,1101401.0,1100053.0,1101401.0,673646950eb7c31614a424bf,0.0,0.0,yellow_empty_square_grey.png,red_empty_square_white.png,green_half_triangle_white.png,yellow_half_square_white.png,yellow_full_square_black.png,4.0,3.0,2.0,1761.0,924.0,1347.0,571.0,234.0,3.0,,,,,0.0,1,s,145.0,,,,0,0,2.0,1767.9999999997672,234.0,2.0,4.0,"[(1, 0, 2, 1), (0, 0, 2, 2), (2, 1, 1, 2), (1, 1, 2, 2), (1, 2, 2, 0)]",s,d,s,d,yellow,yellow,yellow,full,half,empty,square,square,square,black,white,grey,5.0,1.0,3.0,1.0,3.0,58,0,train,25,28,0.8166666666666667,3.0,2.0,2.0,1.0,"(1, 3, 1, 3)","(3, 2, 2, 1)",1.0,0.0,0.0,1.0
59,1111800.0,1119851.0,1117558.0,1119850.0,673646950eb7c31614a424bf,0.0,0.0,red_half_triangle_white.png,green_full_square_black.png,red_full_triangle_black.png,yellow_half_triangle_black.png,green_empty_triangle_black.png,5.0,2.0,2.0,1223.0,1272.0,2285.0,484.0,145.0,2.0,,,,,0.0,0,g,345.0,,,,0,0,2.0,3032.0,145.0,2.0,4.0,"[(0, 1, 1, 2), (2, 2, 2, 0), (0, 2, 1, 0), (1, 1, 1, 0), (2, 0, 1, 0)]",d,d,s,s,green,yellow,red,empty,half,full,triangle,triangle,triangle,black,black,black,9.0,3.0,3.0,1.0,1.0,59,0,train,25,29,0.8166666666666667,3.0,2.0,1.0,2.0,"(3, 3, 1, 1)","(3, 2, 1, 2)",1.0,0.0,1.0,0.0
60,1153583.0,1156584.0,1156274.0,1156583.0,673646950eb7c31614a424bf,1.0,0.0,yellow_empty_circle_grey.png,yellow_full_triangle_black.png,red_empty_square_grey.png,green_empty_triangle_grey.png,green_full_circle_white.png,4.0,3.0,2.0,814.0,1829.0,294.0,662.0,134.0,3.0,,,,,0.0,1,s,134.0,,,,0,0,3.0,1033.0,134.0,2.0,1.0,"[(1, 0, 0, 1), (1, 2, 1, 0), (0, 0, 2, 1), (2, 0, 1, 1), (2, 2, 0, 2)]",d,s,d,s,green,yellow,red,empty,empty,empty,triangle,circle,square,grey,grey,grey,3.0,3.0,1.0,3.0,1.0,60,1,test,26,0,0.8166666666666667,3.0,1.0,3.0,1.0,"(3, 1, 3, 1)","(3, 1, 3, 1)",1.0,1.0,1.0,1.0
61,1165600.0,1170467.0,1170008.0,1170466.0,673646950eb7c31614a424bf,1.0,0.0,red_half_square_grey.png,red_half_triangle_grey.png,yellow_full_circle_black.png,red_empty_triangle_black.png,red_full_triangle_white.png,5.0,3.0,2.0,1008.0,751.0,452.0,562.0,245.0,3.0,,,,,0.0,0,g,245.0,,,,0,0,3.0,933.0,245.0,2.0,4.0,"[(0, 1, 2, 1), (0, 1, 1, 1), (1, 2, 0, 0), (0, 0, 1, 0), (0, 2, 1, 2)]",s,d,s,d,red,red,red,full,empty,half,triangle,triangle,triangle,white,black,grey,8.0,1.0,3.0,1.0,3.0,61,1,test,27,1,0.8166666666666667,1.0,3.0,1.0,3.0,"(1, 3, 1, 3)","(1, 3, 1, 3)",1.0,1.0,1.0,1.0
62,1179800.0,1182067.0,1181407.0,1182067.0,673646950eb7c31614a424bf,1.0,0.0,red_empty_square_white.png,red_empty_triangle_black.png,green_full_triangle_black.png,red_empty_circle_grey.png,red_half_square_white.png,4.0,3.0,3.0,1356.0,949.0,660.0,337.0,124.0,3.0,,,,,0.0,1,s,124.0,,,,0,0,3.0,1435.0,124.0,3.0,4.0,"[(0, 0, 2, 2), (0, 0, 1, 0), (2, 2, 1, 0), (0, 0, 0, 1), (0, 1, 2, 2)]",s,s,d,d,red,red,red,empty,empty,empty,circle,square,triangle,grey,white,black,1.0,1.0,1.0,3.0,3.0,62,1,test,28,2,0.8166666666666667,1.0,1.0,3.0,3.0,"(1, 1, 3, 3)","(1, 1, 3, 3)",1.0,1.0,1.0,1.0
63,1191566.0,1195500.0,1195191.0,1195500.0,673646950eb7c31614a424bf,1.0,0.0,yellow_full_triangle_black.png,yellow_empty_square_black.png,green_empty_circle_white.png,yellow_half_circle_black.png,red_half_triangle_white.png,4.0,3.0,3.0,908.0,1016.0,303.0,273.0,124.0,3.0,,,,,0.0,1,s,124.0,,,,0,0,3.0,851.0,124.0,3.0,1.0,"[(1, 2, 1, 0), (1, 0, 2, 0), (2, 0, 0, 2), (1, 1, 0, 0), (0, 1, 1, 2)]",s,d,d,s,yellow,yellow,yellow,half,full,empty,circle,triangle,square,black,black,black,1.0,1.0,3.0,3.0,1.0,63,1,test,29,3,0.8166666666666667,1.0,3.0,3.0,1.0,"(1, 3, 3, 1)","(1, 3, 3, 1)",1.0,1.0,1.0,1.0
64,1204349.0,1206750.0,1206425.0,1206749.0,673646950eb7c31614a424bf,1.0,0.0,yellow_half_circle_white.png,yellow_full_circle_white.png,red_half_triangle_white.png,green_half_square_white.png,yellow_empty_triangle_black.png,4.0,3.0,3.0,1209.0,870.0,310.0,171.0,134.0,3.0,,,,,0.0,1,s,134.0,,,,0,0,3.0,1384.0,134.0,3.0,4.0,"[(1, 1, 0, 2), (1, 2, 0, 2), (0, 1, 1, 2), (2, 1, 2, 2), (1, 0, 1, 0)]",d,s,d,s,green,yellow,red,half,half,half,square,circle,triangle,white,white,white,3.0,3.0,1.0,3.0,1.0,64,1,test,30,4,0.8166666666666667,3.0,1.0,3.0,1.0,"(3, 1, 3, 1)","(3, 1, 3, 1)",1.0,1.0,1.0,1.0
65,1215833.0,1218350.0,1218329.0,1218349.0,673646950eb7c31614a424bf,1.0,0.0,red_half_square_black.png,green_half_square_black.png,red_empty_circle_white.png,green_full_square_white.png,green_empty_square_grey.png,5.0,3.0,3.0,798.0,892.0,12.0,377.0,245.0,3.0,,,,,0.0,1,s,245.0,,,,0,0,3.0,1284.0,245.0,3.0,1.0,"[(0, 1, 2, 0), (2, 1, 2, 0), (0, 0, 0, 2), (2, 2, 2, 2), (2, 0, 2, 1)]",s,d,s,d,green,green,green,empty,full,half,square,square,square,grey,white,black,8.0,1.0,3.0,1.0,3.0,65,1,test,31,5,0.8166666666666667,1.0,3.0,1.0,3.0,"(1, 3, 1, 3)","(1, 3, 1, 3)",1.0,1.0,1.0,1.0
66,1227299.0,1231200.0,1230642.0,1231199.0,673646950eb7c31614a424bf,1.0,0.0,green_half_square_white.png,green_empty_triangle_black.png,yellow_full_square_white.png,yellow_half_square_grey.png,red_empty_square_white.png,3.0,2.0,2.0,809.0,1010.0,547.0,450.0,135.0,2.0,,,,,0.0,0,g,135.0,,,,0,0,3.0,1767.0,153.0,2.0,4.0,"[(2, 1, 2, 2), (2, 0, 1, 0), (1, 2, 2, 2), (1, 1, 2, 1), (0, 0, 2, 2)]",d,d,s,s,red,green,yellow,empty,half,full,square,square,square,white,white,white,4.0,3.0,3.0,1.0,1.0,66,1,test,32,6,0.8166666666666667,3.0,3.0,1.0,1.0,"(3, 3, 1, 1)","(3, 3, 1, 1)",1.0,1.0,1.0,1.0
67,1240649.0,1245217.0,1244632.0,1245216.0,673646950eb7c31614a424bf,0.0,0.0,green_empty_triangle_grey.png,green_empty_triangle_white.png,green_half_triangle_grey.png,green_empty_circle_grey.png,green_full_triangle_black.png,4.0,2.0,3.0,2213.0,1392.0,574.0,881.0,124.0,2.0,,,,,0.0,0,g,235.0,,,,0,0,3.0,2834.0,124.0,3.0,3.0,"[(2, 0, 1, 1), (2, 0, 1, 2), (2, 1, 1, 1), (2, 0, 0, 1), (2, 2, 1, 0)]",s,d,s,d,green,green,green,full,half,empty,triangle,triangle,triangle,black,grey,white,7.0,1.0,3.0,1.0,3.0,67,0,test,32,7,0.8166666666666667,1.0,1.0,2.0,2.0,"(1, 3, 1, 3)","(1, 1, 2, 2)",1.0,1.0,0.0,0.0
68,1256432.0,1260482.0,1260460.0,1260482.0,673646950eb7c31614a424bf,0.0,0.0,green_empty_triangle_grey.png,green_empty_triangle_black.png,yellow_empty_triangle_white.png,red_empty_square_black.png,red_empty_triangle_black.png,5.0,3.0,2.0,814.0,1337.0,15.0,772.0,245.0,3.0,,,,,0.0,0,g,135.0,,,,0,0,3.0,1414.9999999997672,245.0,2.0,3.0,"[(2, 0, 1, 1), (2, 0, 1, 0), (1, 0, 1, 2), (0, 0, 2, 0), (0, 0, 1, 0)]",d,s,s,d,red,green,yellow,empty,empty,empty,triangle,triangle,triangle,black,grey,white,4.0,3.0,1.0,1.0,3.0,68,0,test,32,8,0.8166666666666667,2.0,1.0,2.0,1.0,"(3, 1, 1, 3)","(2, 1, 2, 1)",0.0,1.0,0.0,1.0
69,1269466.0,1274032.0,1273773.0,1274032.0,673646950eb7c31614a424bf,0.0,0.0,green_full_square_black.png,red_empty_triangle_black.png,green_half_triangle_black.png,yellow_full_triangle_black.png,red_half_circle_grey.png,3.0,1.0,2.0,1101.0,614.0,253.0,797.0,123.0,1.0,,,,,0.0,0,g,234.0,,,,0,0,3.0,599.9999999997672,123.0,2.0,4.0,"[(2, 2, 2, 0), (0, 0, 1, 0), (2, 1, 1, 0), (1, 2, 1, 0), (0, 1, 0, 1)]",d,d,s,s,yellow,green,red,full,half,empty,triangle,triangle,triangle,black,black,black,6.0,3.0,3.0,1.0,1.0,69,0,test,32,9,0.8166666666666667,2.0,3.0,2.0,1.0,"(3, 3, 1, 1)","(2, 3, 2, 1)",0.0,1.0,0.0,1.0
70,1283799.0,1286699.0,1286455.0,1286699.0,673646950eb7c31614a424bf,1.0,0.0,red_empty_triangle_black.png,red_half_triangle_grey.png,green_empty_triangle_grey.png,yellow_full_triangle_grey.png,yellow_half_triangle_black.png,3.0,2.0,2.0,1252.0,1079.0,230.0,1052.0,234.0,2.0,,,,,0.0,1,s,234.0,,,,0,0,3.0,1251.0,423.0,2.0,0.0,"[(0, 0, 1, 0), (0, 1, 1, 1), (2, 0, 1, 1), (1, 2, 1, 1), (1, 1, 1, 0)]",d,d,s,s,yellow,green,red,full,empty,half,triangle,triangle,triangle,grey,grey,grey,6.0,3.0,3.0,1.0,1.0,70,1,test,33,10,0.8166666666666667,3.0,3.0,1.0,1.0,"(3, 3, 1, 1)","(3, 3, 1, 1)",1.0,1.0,1.0,1.0
71,1297432.0,1301699.0,1301662.0,1301698.0,673646950eb7c31614a424bf,1.0,0.0,yellow_full_square_black.png,red_full_triangle_grey.png,yellow_empty_square_grey.png,yellow_full_square_grey.png,green_full_circle_grey.png,5.0,2.0,3.0,1221.0,1635.0,34.0,251.0,245.0,2.0,,,,,0.0,1,s,245.0,,,,0,0,3.0,2967.0,245.0,3.0,4.0,"[(1, 2, 2, 0), (0, 2, 1, 1), (1, 0, 2, 1), (1, 2, 2, 1), (2, 2, 0, 1)]",d,s,d,s,green,yellow,red,full,full,full,circle,square,triangle,grey,grey,grey,8.0,3.0,1.0,3.0,1.0,71,1,test,34,11,0.8166666666666667,3.0,1.0,3.0,1.0,"(3, 1, 3, 1)","(3, 1, 3, 1)",1.0,1.0,1.0,1.0
72,1311015.0,1314899.0,1314107.0,1314899.0,673646950eb7c31614a424bf,0.0,0.0,yellow_empty_square_grey.png,yellow_half_square_black.png,yellow_full_square_white.png,red_empty_triangle_black.png,yellow_empty_square_black.png,5.0,2.0,2.0,1078.0,1049.0,785.0,291.0,125.0,2.0,,,,,0.0,1,s,123.0,,,,0,0,3.0,1267.0,125.0,2.0,4.0,"[(1, 0, 2, 1), (1, 1, 2, 0), (1, 2, 2, 2), (0, 0, 1, 0), (1, 0, 2, 0)]",s,d,s,d,yellow,yellow,yellow,empty,full,half,square,square,square,grey,white,black,0.0,1.0,3.0,1.0,3.0,72,0,test,34,12,0.8166666666666667,1.0,2.0,1.0,2.0,"(1, 3, 1, 3)","(1, 2, 1, 2)",1.0,0.0,1.0,0.0
73,1323815.0,1332082.0,1329591.0,1332082.0,673646950eb7c31614a424bf,0.0,0.0,red_half_circle_grey.png,yellow_full_square_white.png,yellow_empty_square_white.png,yellow_full_square_black.png,yellow_half_square_grey.png,3.0,2.0,2.0,776.0,756.0,2481.0,302.0,234.0,2.0,,,,,0.0,0,g,345.0,,,,0,0,3.0,4434.0,243.0,2.0,4.0,"[(0, 1, 0, 1), (1, 2, 2, 2), (1, 0, 2, 2), (1, 2, 2, 0), (1, 1, 2, 1)]",s,d,s,d,yellow,yellow,yellow,half,full,empty,square,square,square,grey,black,white,9.0,1.0,3.0,1.0,3.0,73,0,test,34,13,0.8166666666666667,1.0,2.0,1.0,2.0,"(1, 3, 1, 3)","(1, 2, 1, 2)",1.0,0.0,1.0,0.0
74,1340732.0,1342683.0,1342053.0,1342683.0,673646950eb7c31614a424bf,1.0,0.0,red_full_square_white.png,yellow_half_square_white.png,red_full_square_black.png,green_empty_circle_black.png,green_empty_square_white.png,5.0,2.0,2.0,1022.0,774.0,616.0,969.0,125.0,2.0,,,,,0.0,1,s,125.0,,,,0,0,3.0,985.0,125.0,2.0,1.0,"[(0, 2, 2, 2), (1, 1, 2, 2), (0, 2, 2, 0), (2, 0, 0, 0), (2, 0, 2, 2)]",d,d,s,s,green,red,yellow,empty,full,half,square,square,square,white,white,white,2.0,3.0,3.0,1.0,1.0,74,1,test,35,14,0.8166666666666667,3.0,3.0,1.0,1.0,"(3, 3, 1, 1)","(3, 3, 1, 1)",1.0,1.0,1.0,1.0
75,1352265.0,1357550.0,1356125.0,1357549.0,673646950eb7c31614a424bf,0.0,0.0,red_half_triangle_grey.png,yellow_full_triangle_white.png,green_half_triangle_white.png,red_full_triangle_white.png,yellow_empty_triangle_white.png,5.0,2.0,2.0,580.0,800.0,1424.0,966.0,245.0,2.0,,,,,0.0,0,g,345.0,,,,0,0,3.0,2501.999999999767,245.0,2.0,3.0,"[(0, 1, 1, 1), (1, 2, 1, 2), (2, 1, 1, 2), (0, 2, 1, 2), (1, 0, 1, 2)]",d,d,s,s,yellow,red,green,empty,full,half,triangle,triangle,triangle,white,white,white,9.0,3.0,3.0,1.0,1.0,75,0,test,35,15,0.8166666666666667,2.0,2.0,1.0,1.0,"(3, 3, 1, 1)","(2, 2, 1, 1)",0.0,0.0,1.0,1.0
76,1366815.0,1371715.0,1371533.0,1371715.0,673646950eb7c31614a424bf,1.0,0.0,red_empty_triangle_grey.png,red_half_triangle_grey.png,red_half_circle_grey.png,red_empty_square_white.png,red_empty_circle_black.png,5.0,3.0,3.0,845.0,938.0,177.0,273.0,145.0,3.0,,,,,0.0,1,s,145.0,,,,0,0,3.0,1167.0,145.0,3.0,0.0,"[(0, 0, 1, 1), (0, 1, 1, 1), (0, 1, 0, 1), (0, 0, 2, 2), (0, 0, 0, 0)]",s,s,d,d,red,red,red,empty,empty,empty,circle,square,triangle,black,white,grey,5.0,1.0,1.0,3.0,3.0,76,1,test,36,16,0.8166666666666667,1.0,1.0,3.0,3.0,"(1, 1, 3, 3)","(1, 1, 3, 3)",1.0,1.0,1.0,1.0
77,1380581.0,1382115.0,1381788.0,1382115.0,673646950eb7c31614a424bf,1.0,0.0,yellow_full_triangle_grey.png,red_full_square_grey.png,green_half_square_white.png,green_full_circle_grey.png,green_empty_square_grey.png,4.0,3.0,3.0,1476.0,965.0,322.0,283.0,124.0,3.0,,,,,0.0,1,s,124.0,,,,0,0,3.0,1034.0000000002328,124.0,3.0,4.0,"[(1, 2, 1, 1), (0, 2, 2, 1), (2, 1, 2, 2), (2, 2, 0, 1), (2, 0, 2, 1)]",d,s,d,s,green,yellow,red,full,full,full,circle,triangle,square,grey,grey,grey,1.0,3.0,1.0,3.0,1.0,77,1,test,37,17,0.8166666666666667,3.0,1.0,3.0,1.0,"(3, 1, 3, 1)","(3, 1, 3, 1)",1.0,1.0,1.0,1.0
78,1391781.0,1395548.0,1394921.0,1395548.0,673646950eb7c31614a424bf,1.0,0.0,red_empty_triangle_white.png,red_full_triangle_black.png,red_half_square_black.png,red_half_triangle_grey.png,yellow_full_triangle_white.png,4.0,3.0,3.0,1107.0,1116.0,624.0,1247.0,124.0,3.0,,,,,0.0,0,g,124.0,,,,0,0,3.0,1634.0,124.0,3.0,4.0,"[(0, 0, 1, 2), (0, 2, 1, 0), (0, 1, 2, 0), (0, 1, 1, 1), (1, 2, 1, 2)]",s,d,s,d,red,red,red,half,empty,full,triangle,triangle,triangle,grey,white,black,1.0,1.0,3.0,1.0,3.0,78,1,test,38,18,0.8166666666666667,1.0,3.0,1.0,3.0,"(1, 3, 1, 3)","(1, 3, 1, 3)",1.0,1.0,1.0,1.0
79,1405664.0,1407448.0,1407252.0,1407448.0,673646950eb7c31614a424bf,0.0,0.0,red_empty_triangle_white.png,green_empty_triangle_black.png,yellow_empty_circle_grey.png,yellow_empty_triangle_grey.png,yellow_empty_circle_grey.png,5.0,3.0,3.0,833.0,983.0,186.0,554.0,345.0,3.0,,,,,0.0,1,s,124.0,,,,0,0,3.0,550.0,345.0,3.0,0.0,"[(0, 0, 1, 2), (2, 0, 1, 0), (1, 0, 0, 1), (1, 0, 1, 1), (1, 0, 0, 1)]",d,s,s,d,yellow,red,green,empty,empty,empty,triangle,triangle,triangle,grey,white,black,1.0,3.0,1.0,1.0,3.0,79,0,test,38,19,0.8166666666666667,1.0,1.0,2.0,1.0,"(3, 1, 1, 3)","(1, 1, 2, 1)",1.0,1.0,0.0,1.0
80,1416447.0,1419165.0,1418856.0,1419164.0,673646950eb7c31614a424bf,1.0,0.0,green_full_triangle_black.png,red_half_circle_grey.png,yellow_full_triangle_grey.png,yellow_full_square_white.png,red_full_triangle_white.png,5.0,3.0,3.0,970.0,807.0,306.0,363.0,135.0,3.0,,,,,0.0,1,s,135.0,,,,0,0,3.0,1484.0,135.0,3.0,4.0,"[(2, 2, 1, 0), (0, 1, 0, 1), (1, 2, 1, 1), (1, 2, 2, 2), (0, 2, 1, 2)]",d,s,s,d,red,green,yellow,full,full,full,triangle,triangle,triangle,white,black,grey,4.0,3.0,1.0,1.0,3.0,80,1,test,39,20,0.8166666666666667,3.0,1.0,1.0,3.0,"(3, 1, 1, 3)","(3, 1, 1, 3)",1.0,1.0,1.0,1.0
81,1428097.0,1432381.0,1432222.0,1432381.0,673646950eb7c31614a424bf,1.0,0.0,red_half_square_grey.png,red_empty_triangle_grey.png,red_empty_circle_white.png,red_empty_square_black.png,yellow_empty_circle_white.png,4.0,3.0,2.0,1046.0,823.0,145.0,533.0,234.0,3.0,,,,,0.0,0,g,234.0,,,,0,0,3.0,1201.0,234.0,2.0,4.0,"[(0, 1, 2, 1), (0, 0, 1, 1), (0, 0, 0, 2), (0, 0, 2, 0), (1, 0, 0, 2)]",s,s,d,d,red,red,red,empty,empty,empty,square,circle,triangle,black,white,grey,6.0,1.0,1.0,3.0,3.0,81,1,test,40,21,0.8166666666666667,1.0,1.0,3.0,3.0,"(1, 1, 3, 3)","(1, 1, 3, 3)",1.0,1.0,1.0,1.0
82,1441530.0,1447331.0,1446273.0,1447330.0,673646950eb7c31614a424bf,0.0,0.0,red_half_triangle_black.png,green_full_circle_white.png,yellow_full_circle_white.png,red_full_triangle_white.png,yellow_full_square_white.png,4.0,3.0,2.0,1874.0,764.0,1050.0,372.0,234.0,3.0,,,,,0.0,0,g,245.0,,,,0,0,3.0,2450.0,234.0,2.0,4.0,"[(0, 1, 1, 0), (2, 2, 0, 2), (1, 2, 0, 2), (0, 2, 1, 2), (1, 2, 2, 2)]",d,s,d,s,yellow,red,green,full,full,full,square,triangle,circle,white,white,white,8.0,3.0,1.0,3.0,1.0,82,0,test,40,22,0.8166666666666667,3.0,1.0,2.0,1.0,"(3, 1, 3, 1)","(3, 1, 2, 1)",1.0,1.0,0.0,1.0
83,1457247.0,1459764.0,1459086.0,1459764.0,673646950eb7c31614a424bf,1.0,0.0,yellow_full_square_white.png,yellow_empty_circle_black.png,yellow_empty_square_black.png,red_half_triangle_grey.png,yellow_half_square_grey.png,5.0,3.0,3.0,987.0,857.0,663.0,235.0,135.0,3.0,,,,,0.0,1,s,135.0,,,,0,0,3.0,1568.0,135.0,3.0,4.0,"[(1, 2, 2, 2), (1, 0, 0, 0), (1, 0, 2, 0), (0, 1, 1, 1), (1, 1, 2, 1)]",s,d,s,d,yellow,yellow,yellow,half,full,empty,square,square,square,grey,white,black,4.0,1.0,3.0,1.0,3.0,83,1,test,41,23,0.8166666666666667,1.0,3.0,1.0,3.0,"(1, 3, 1, 3)","(1, 3, 1, 3)",1.0,1.0,1.0,1.0
84,1468713.0,1472464.0,1471771.0,1472463.0,673646950eb7c31614a424bf,1.0,0.0,red_full_triangle_black.png,yellow_empty_circle_black.png,red_half_circle_black.png,red_empty_square_black.png,yellow_half_circle_black.png,3.0,2.0,2.0,1046.0,926.0,683.0,318.0,134.0,2.0,,,,,0.0,0,g,134.0,,,,0,0,3.0,1517.0,143.0,2.0,0.0,"[(0, 2, 1, 0), (1, 0, 0, 0), (0, 1, 0, 0), (0, 0, 2, 0), (1, 1, 0, 0)]",s,d,d,s,red,red,red,empty,full,half,square,triangle,circle,black,black,black,3.0,1.0,3.0,3.0,1.0,84,1,test,42,24,0.8166666666666667,1.0,3.0,3.0,1.0,"(1, 3, 3, 1)","(1, 3, 3, 1)",1.0,1.0,1.0,1.0
85,1481430.0,1484781.0,1484404.0,1484780.0,673646950eb7c31614a424bf,0.0,0.0,yellow_empty_square_black.png,yellow_full_circle_black.png,yellow_half_triangle_black.png,green_full_square_black.png,yellow_full_square_black.png,5.0,3.0,3.0,1168.0,791.0,371.0,335.0,245.0,3.0,,,,,0.0,1,s,123.0,,,,0,0,3.0,900.0,245.0,3.0,3.0,"[(1, 0, 2, 0), (1, 2, 0, 0), (1, 1, 1, 0), (2, 2, 2, 0), (1, 2, 2, 0)]",s,d,d,s,yellow,yellow,yellow,empty,half,full,square,triangle,circle,black,black,black,0.0,1.0,3.0,3.0,1.0,85,0,test,42,25,0.8166666666666667,2.0,1.0,2.0,1.0,"(1, 3, 3, 1)","(2, 1, 2, 1)",0.0,1.0,0.0,1.0
86,1493814.0,1498848.0,1498669.0,1498847.0,673646950eb7c31614a424bf,1.0,0.0,yellow_full_triangle_grey.png,green_half_circle_black.png,red_full_triangle_black.png,red_full_square_grey.png,red_full_circle_white.png,5.0,3.0,2.0,762.0,726.0,168.0,133.0,345.0,3.0,,,,,0.0,1,s,345.0,,,,0,0,3.0,1267.0,345.0,2.0,4.0,"[(1, 2, 1, 1), (2, 1, 0, 0), (0, 2, 1, 0), (0, 2, 2, 1), (0, 2, 0, 2)]",s,s,d,d,red,red,red,full,full,full,circle,square,triangle,white,grey,black,9.0,1.0,1.0,3.0,3.0,86,1,test,43,26,0.8166666666666667,1.0,1.0,3.0,3.0,"(1, 1, 3, 3)","(1, 1, 3, 3)",1.0,1.0,1.0,1.0
87,1507363.0,1513714.0,1511820.0,1513713.0,673646950eb7c31614a424bf,0.0,0.0,yellow_empty_triangle_grey.png,yellow_empty_circle_grey.png,yellow_empty_square_black.png,red_half_square_grey.png,yellow_empty_triangle_white.png,2.0,2.0,2.0,1011.0,822.0,1883.0,218.0,125.0,2.0,,,,,0.0,0,g,235.0,,,,0,0,3.0,4817.0,152.0,2.0,4.0,"[(1, 0, 1, 1), (1, 0, 0, 1), (1, 0, 2, 0), (0, 1, 2, 1), (1, 0, 1, 2)]",s,s,d,d,yellow,yellow,yellow,empty,empty,empty,triangle,square,circle,white,black,grey,7.0,1.0,1.0,3.0,3.0,87,0,test,43,27,0.8166666666666667,1.0,1.0,2.0,2.0,"(1, 1, 3, 3)","(1, 1, 2, 2)",1.0,1.0,0.0,0.0
88,1522647.0,1524197.0,1524172.0,1524196.0,673646950eb7c31614a424bf,0.0,0.0,yellow_half_circle_white.png,green_half_circle_white.png,yellow_full_circle_grey.png,green_half_triangle_white.png,red_half_square_white.png,3.0,3.0,3.0,712.0,876.0,12.0,173.0,123.0,3.0,,,,,0.0,1,s,145.0,,,,0,0,3.0,1117.0,123.0,3.0,4.0,"[(1, 1, 0, 2), (2, 1, 0, 2), (1, 2, 0, 1), (2, 1, 1, 2), (0, 1, 2, 2)]",d,s,d,s,red,green,yellow,half,half,half,square,triangle,circle,white,white,white,5.0,3.0,1.0,3.0,1.0,88,0,test,43,28,0.8166666666666667,2.0,2.0,1.0,2.0,"(3, 1, 3, 1)","(2, 2, 1, 2)",0.0,0.0,1.0,0.0
89,1532546.0,1537414.0,1536585.0,1537413.0,673646950eb7c31614a424bf,0.0,0.0,green_half_triangle_black.png,yellow_half_triangle_black.png,red_half_square_black.png,red_empty_circle_grey.png,green_half_circle_black.png,3.0,2.0,2.0,800.0,677.0,825.0,397.0,123.0,2.0,,,,,0.0,1,s,235.0,,,,0,0,3.0,1868.0,123.0,2.0,4.0,"[(2, 1, 1, 0), (1, 1, 1, 0), (0, 1, 2, 0), (0, 0, 0, 1), (2, 1, 0, 0)]",d,s,d,s,green,red,yellow,half,half,half,circle,square,triangle,black,black,black,7.0,3.0,1.0,3.0,1.0,89,0,test,43,29,0.8166666666666667,3.0,1.0,2.0,1.0,"(3, 1, 3, 1)","(3, 1, 2, 1)",1.0,1.0,0.0,1.0
0,274130.0,276247.0,275867.0,276247.0,60ff2046a84c7d1de05f5f87,1.0,0.0,red_half_circle_white.png,green_half_square_black.png,yellow_half_circle_black.png,red_empty_triangle_grey.png,green_half_circle_grey.png,5.0,4.0,3.0,2785.0,1773.0,378.0,1867.0,135.0,4.0,,,,,0.0,0,g,135.0,,,,0,1,1.0,868.3999999985099,135.0,3.0,4.0,"[(0, 1, 0, 2), (2, 1, 2, 0), (1, 1, 0, 0), (0, 0, 1, 1), (2, 1, 0, 1)]",d,s,s,d,green,red,yellow,half,half,half,circle,circle,circle,grey,white,black,4.0,3.0,1.0,1.0,3.0,0,1,train,1,0,0.9,3.0,1.0,1.0,3.0,"(3, 1, 1, 3)","(3, 1, 1, 3)",1.0,1.0,1.0,1.0
1,290363.0,293580.0,292783.0,293579.0,60ff2046a84c7d1de05f5f87,1.0,0.0,green_full_square_black.png,red_empty_square_black.png,green_half_triangle_grey.png,green_full_circle_black.png,yellow_half_square_black.png,5.0,3.0,4.0,2831.0,2710.0,782.0,2609.0,125.0,3.0,,,,,0.0,1,s,125.0,,,,0,1,1.0,1383.89999999851,125.0,4.0,4.0,"[(2, 2, 2, 0), (0, 0, 2, 0), (2, 1, 1, 1), (2, 2, 0, 0), (1, 1, 2, 0)]",d,d,s,s,yellow,green,red,half,full,empty,square,square,square,black,black,black,2.0,3.0,3.0,1.0,1.0,1,1,train,2,1,0.9,3.0,3.0,1.0,1.0,"(3, 3, 1, 1)","(3, 3, 1, 1)",1.0,1.0,1.0,1.0
2,309612.0,312680.0,312209.0,312679.0,60ff2046a84c7d1de05f5f87,1.0,0.0,red_empty_square_grey.png,yellow_half_circle_white.png,yellow_half_square_black.png,yellow_full_circle_black.png,yellow_half_triangle_grey.png,5.0,3.0,3.0,1778.0,3824.0,469.0,1244.0,235.0,3.0,,,,,0.0,0,g,235.0,,,,0,1,1.0,649.7999999970198,235.0,3.0,4.0,"[(0, 0, 2, 1), (1, 1, 0, 2), (1, 1, 2, 0), (1, 2, 0, 0), (1, 1, 1, 1)]",s,s,d,d,yellow,yellow,yellow,half,half,half,triangle,square,circle,grey,black,white,7.0,1.0,1.0,3.0,3.0,2,1,train,3,2,0.9,1.0,1.0,3.0,3.0,"(1, 1, 3, 3)","(1, 1, 3, 3)",1.0,1.0,1.0,1.0
3,323196.0,325563.0,325133.0,325562.0,60ff2046a84c7d1de05f5f87,1.0,0.0,red_empty_triangle_black.png,green_half_circle_white.png,green_empty_circle_black.png,green_full_circle_grey.png,yellow_full_circle_grey.png,4.0,4.0,4.0,1520.0,755.0,419.0,2301.0,234.0,4.0,,,,,0.0,1,s,234.0,,,,0,1,1.0,749.5,234.0,4.0,4.0,"[(0, 0, 1, 0), (2, 1, 0, 2), (2, 0, 0, 0), (2, 2, 0, 1), (1, 2, 0, 1)]",s,d,s,d,green,green,green,full,empty,half,circle,circle,circle,grey,black,white,6.0,1.0,3.0,1.0,3.0,3,1,train,4,3,0.9,1.0,3.0,1.0,3.0,"(1, 3, 1, 3)","(1, 3, 1, 3)",1.0,1.0,1.0,1.0
4,338229.0,340796.0,340286.0,340795.0,60ff2046a84c7d1de05f5f87,0.0,0.0,green_half_square_black.png,red_half_triangle_black.png,green_empty_circle_black.png,green_half_square_grey.png,green_full_triangle_black.png,4.0,3.0,3.0,1552.0,2113.0,505.0,1946.0,124.0,3.0,,,,,0.0,1,s,135.0,,,,0,1,1.0,800.6999999992549,124.0,3.0,4.0,"[(2, 1, 2, 0), (0, 1, 1, 0), (2, 0, 0, 0), (2, 1, 2, 1), (2, 2, 1, 0)]",s,d,d,s,green,green,green,full,half,empty,triangle,square,circle,black,black,black,4.0,1.0,3.0,3.0,1.0,4,0,train,4,4,0.9,2.0,1.0,2.0,2.0,"(1, 3, 3, 1)","(2, 1, 2, 2)",0.0,1.0,0.0,0.0
5,353679.0,355962.0,355681.0,355962.0,60ff2046a84c7d1de05f5f87,0.0,0.0,yellow_empty_triangle_grey.png,green_empty_square_grey.png,red_empty_square_black.png,red_full_square_grey.png,yellow_half_square_grey.png,3.0,3.0,3.0,1362.0,2616.0,275.0,1959.0,123.0,3.0,,,,,0.0,1,s,245.0,,,,0,1,1.0,584.8000000007451,123.0,3.0,4.0,"[(1, 0, 1, 1), (2, 0, 2, 1), (0, 0, 2, 0), (0, 2, 2, 1), (1, 1, 2, 1)]",d,d,s,s,yellow,red,green,half,full,empty,square,square,square,grey,grey,grey,8.0,3.0,3.0,1.0,1.0,5,0,train,4,5,0.9,3.0,1.0,2.0,2.0,"(3, 3, 1, 1)","(3, 1, 2, 2)",1.0,1.0,0.0,0.0
6,366712.0,368479.0,368096.0,368478.0,60ff2046a84c7d1de05f5f87,1.0,0.0,yellow_full_triangle_black.png,green_empty_circle_black.png,green_full_square_black.png,green_half_triangle_black.png,red_empty_triangle_white.png,4.0,3.0,3.0,1129.0,709.0,371.0,1666.0,234.0,3.0,,,,,0.0,1,s,234.0,,,,0,1,1.0,584.0,234.0,3.0,4.0,"[(1, 2, 1, 0), (2, 0, 0, 0), (2, 2, 2, 0), (2, 1, 1, 0), (0, 0, 1, 2)]",s,d,d,s,green,green,green,half,full,empty,triangle,square,circle,black,black,black,6.0,1.0,3.0,3.0,1.0,6,1,train,5,6,0.9,1.0,3.0,3.0,1.0,"(1, 3, 3, 1)","(1, 3, 3, 1)",1.0,1.0,1.0,1.0
7,380895.0,383228.0,382994.0,383228.0,60ff2046a84c7d1de05f5f87,0.0,0.0,red_empty_square_grey.png,yellow_full_square_grey.png,red_empty_circle_white.png,green_empty_square_grey.png,green_half_square_grey.png,4.0,3.0,3.0,1194.0,2868.0,224.0,823.0,134.0,3.0,,,,,0.0,1,s,125.0,,,,0,1,1.0,684.1999999992549,134.0,3.0,4.0,"[(0, 0, 2, 1), (1, 2, 2, 1), (0, 0, 0, 2), (2, 0, 2, 1), (2, 1, 2, 1)]",d,d,s,s,green,red,yellow,half,empty,full,square,square,square,grey,grey,grey,2.0,3.0,3.0,1.0,1.0,7,0,train,5,7,0.9,2.0,1.0,2.0,2.0,"(3, 3, 1, 1)","(2, 1, 2, 2)",0.0,1.0,0.0,0.0
8,394461.0,396996.0,396646.0,396995.0,60ff2046a84c7d1de05f5f87,1.0,0.0,red_full_circle_white.png,red_full_triangle_grey.png,green_empty_circle_white.png,red_full_square_black.png,yellow_half_square_white.png,4.0,3.0,3.0,1133.0,2468.0,339.0,738.0,124.0,3.0,,,,,0.0,1,s,124.0,,,,0,1,1.0,818.1999999992549,124.0,3.0,4.0,"[(0, 2, 0, 2), (0, 2, 1, 1), (2, 0, 0, 2), (0, 2, 2, 0), (1, 1, 2, 2)]",s,s,d,d,red,red,red,full,full,full,square,circle,triangle,black,white,grey,1.0,1.0,1.0,3.0,3.0,8,1,train,6,8,0.9,1.0,1.0,3.0,3.0,"(1, 1, 3, 3)","(1, 1, 3, 3)",1.0,1.0,1.0,1.0
9,407794.0,410978.0,410779.0,410978.0,60ff2046a84c7d1de05f5f87,0.0,0.0,red_empty_circle_black.png,yellow_full_square_black.png,green_full_square_grey.png,red_empty_square_black.png,green_half_square_black.png,5.0,3.0,2.0,1598.0,2184.0,185.0,1432.0,145.0,3.0,,,,,0.0,0,g,245.0,,,,0,1,1.0,583.8999999985099,145.0,2.0,4.0,"[(0, 0, 0, 0), (1, 2, 2, 0), (2, 2, 2, 1), (0, 0, 2, 0), (2, 1, 2, 0)]",d,d,s,s,green,red,yellow,half,empty,full,square,square,square,black,black,black,8.0,3.0,3.0,1.0,1.0,9,0,train,6,9,0.9,2.0,2.0,2.0,1.0,"(3, 3, 1, 1)","(2, 2, 2, 1)",0.0,0.0,0.0,1.0
10,422278.0,423961.0,423620.0,423961.0,60ff2046a84c7d1de05f5f87,0.0,0.0,green_full_circle_grey.png,red_full_triangle_white.png,red_empty_triangle_grey.png,yellow_empty_triangle_grey.png,red_half_triangle_black.png,4.0,3.0,3.0,1769.0,1532.0,327.0,1197.0,134.0,3.0,,,,,0.0,1,s,235.0,,,,0,1,1.0,817.0,134.0,3.0,4.0,"[(2, 2, 0, 1), (0, 2, 1, 2), (0, 0, 1, 1), (1, 0, 1, 1), (0, 1, 1, 0)]",s,d,s,d,red,red,red,half,empty,full,triangle,triangle,triangle,black,grey,white,7.0,1.0,3.0,1.0,3.0,10,0,train,6,10,0.9,3.0,2.0,2.0,1.0,"(1, 3, 1, 3)","(3, 2, 2, 1)",1.0,0.0,0.0,1.0
11,436744.0,440011.0,439732.0,440011.0,60ff2046a84c7d1de05f5f87,0.0,0.0,yellow_full_circle_white.png,green_half_square_black.png,red_empty_circle_white.png,green_half_circle_white.png,green_empty_circle_white.png,5.0,3.0,3.0,1183.0,3064.0,263.0,1673.0,135.0,3.0,,,,,0.0,0,g,134.0,,,,0,1,1.0,1416.9000000022352,135.0,3.0,4.0,"[(1, 2, 0, 2), (2, 1, 2, 0), (0, 0, 0, 2), (2, 1, 0, 2), (2, 0, 0, 2)]",d,d,s,s,green,yellow,red,half,full,empty,circle,circle,circle,white,white,white,3.0,3.0,3.0,1.0,1.0,11,0,train,6,11,0.9,3.0,2.0,1.0,1.0,"(3, 3, 1, 1)","(3, 2, 1, 1)",1.0,0.0,1.0,1.0
12,451877.0,454794.0,454212.0,454794.0,60ff2046a84c7d1de05f5f87,0.0,0.0,green_empty_square_grey.png,red_full_circle_white.png,red_empty_triangle_black.png,yellow_empty_circle_grey.png,red_empty_triangle_grey.png,5.0,2.0,2.0,1866.0,2258.0,575.0,1364.0,235.0,2.0,,,,,0.0,0,g,145.0,,,,0,1,1.0,833.1000000014901,235.0,2.0,4.0,"[(2, 0, 2, 1), (0, 2, 0, 2), (0, 0, 1, 0), (1, 0, 0, 1), (0, 0, 1, 1)]",d,s,d,s,red,yellow,green,empty,empty,empty,triangle,circle,square,grey,grey,grey,5.0,3.0,1.0,3.0,1.0,12,0,train,6,12,0.9,1.0,2.0,2.0,3.0,"(3, 1, 3, 1)","(1, 2, 2, 3)",1.0,0.0,0.0,1.0
13,466410.0,467577.0,467381.0,467577.0,60ff2046a84c7d1de05f5f87,1.0,0.0,yellow_full_square_black.png,yellow_full_triangle_grey.png,yellow_full_circle_white.png,yellow_empty_triangle_grey.png,green_half_triangle_grey.png,3.0,3.0,3.0,1442.0,1621.0,186.0,1559.0,123.0,3.0,,,,,0.0,1,s,123.0,,,,0,1,1.0,450.3999999985099,123.0,3.0,4.0,"[(1, 2, 2, 0), (1, 2, 1, 1), (1, 2, 0, 2), (1, 0, 1, 1), (2, 1, 1, 1)]",s,s,d,d,yellow,yellow,yellow,full,full,full,square,circle,triangle,black,white,grey,0.0,1.0,1.0,3.0,3.0,13,1,train,7,13,0.9,1.0,1.0,3.0,3.0,"(1, 1, 3, 3)","(1, 1, 3, 3)",1.0,1.0,1.0,1.0
14,480760.0,483194.0,482570.0,483193.0,60ff2046a84c7d1de05f5f87,0.0,0.0,green_full_circle_white.png,green_empty_square_grey.png,yellow_half_triangle_black.png,green_half_circle_black.png,red_half_square_black.png,4.0,3.0,3.0,2156.0,3438.0,617.0,1265.0,124.0,3.0,,,,,0.0,1,s,345.0,,,,0,1,1.0,1099.89999999851,124.0,3.0,4.0,"[(2, 2, 0, 2), (2, 0, 2, 1), (1, 1, 1, 0), (2, 1, 0, 0), (0, 1, 2, 0)]",d,s,d,s,red,green,yellow,half,half,half,square,circle,triangle,black,black,black,9.0,3.0,1.0,3.0,1.0,14,0,train,7,14,0.9,1.0,3.0,2.0,3.0,"(3, 1, 3, 1)","(1, 3, 2, 3)",1.0,1.0,0.0,1.0
15,494710.0,496611.0,496345.0,496610.0,60ff2046a84c7d1de05f5f87,1.0,0.0,green_empty_circle_grey.png,red_full_square_grey.png,red_empty_square_grey.png,green_empty_square_black.png,yellow_empty_square_white.png,5.0,3.0,3.0,2432.0,1331.0,265.0,1173.0,345.0,3.0,,,,,0.0,1,s,345.0,,,,0,1,1.0,467.1999999992549,345.0,3.0,4.0,"[(2, 0, 0, 1), (0, 2, 2, 1), (0, 0, 2, 1), (2, 0, 2, 0), (1, 0, 2, 2)]",d,s,s,d,yellow,green,red,empty,empty,empty,square,square,square,white,black,grey,9.0,3.0,1.0,1.0,3.0,15,1,train,8,15,0.9,3.0,1.0,1.0,3.0,"(3, 1, 1, 3)","(3, 1, 1, 3)",1.0,1.0,1.0,1.0
16,508827.0,510593.0,510331.0,510593.0,60ff2046a84c7d1de05f5f87,0.0,0.0,yellow_empty_square_grey.png,red_full_square_white.png,green_empty_circle_white.png,red_empty_circle_white.png,red_half_triangle_white.png,4.0,3.0,3.0,1277.0,1870.0,246.0,745.0,134.0,3.0,,,,,0.0,1,s,245.0,,,,0,1,1.0,750.5,134.0,3.0,4.0,"[(1, 0, 2, 1), (0, 2, 2, 2), (2, 0, 0, 2), (0, 0, 0, 2), (0, 1, 1, 2)]",s,d,d,s,red,red,red,half,empty,full,triangle,circle,square,white,white,white,8.0,1.0,3.0,3.0,1.0,16,0,train,8,16,0.9,3.0,1.0,2.0,2.0,"(1, 3, 3, 1)","(3, 1, 2, 2)",1.0,1.0,0.0,0.0
17,520859.0,522294.0,521787.0,522293.0,60ff2046a84c7d1de05f5f87,0.0,0.0,red_full_circle_white.png,green_full_circle_grey.png,yellow_full_square_grey.png,yellow_empty_circle_grey.png,yellow_full_circle_black.png,5.0,3.0,3.0,1318.0,1503.0,503.0,1221.0,345.0,3.0,,,,,0.0,1,s,125.0,,,,0,1,1.0,851.0,345.0,3.0,4.0,"[(0, 2, 0, 2), (2, 2, 0, 1), (1, 2, 2, 1), (1, 0, 0, 1), (1, 2, 0, 0)]",d,s,s,d,yellow,red,green,full,full,full,circle,circle,circle,black,white,grey,2.0,3.0,1.0,1.0,3.0,17,0,train,8,17,0.9,1.0,2.0,2.0,2.0,"(3, 1, 1, 3)","(1, 2, 2, 2)",1.0,0.0,0.0,0.0
18,532959.0,534726.0,534502.0,534726.0,60ff2046a84c7d1de05f5f87,0.0,0.0,green_empty_circle_grey.png,yellow_empty_square_white.png,yellow_empty_square_grey.png,green_half_square_grey.png,red_empty_triangle_grey.png,4.0,3.0,3.0,1265.0,1362.0,223.0,570.0,234.0,3.0,,,,,0.0,1,s,135.0,,,,0,1,1.0,449.0,234.0,3.0,4.0,"[(2, 0, 0, 1), (1, 0, 2, 2), (1, 0, 2, 1), (2, 1, 2, 1), (0, 0, 1, 1)]",d,s,d,s,red,green,yellow,empty,empty,empty,triangle,circle,square,grey,grey,grey,4.0,3.0,1.0,3.0,1.0,18,0,train,8,18,0.9,2.0,2.0,1.0,2.0,"(3, 1, 3, 1)","(2, 2, 1, 2)",0.0,0.0,1.0,0.0
19,547959.0,551977.0,551709.0,551976.0,60ff2046a84c7d1de05f5f87,0.0,0.0,red_empty_triangle_white.png,yellow_empty_square_black.png,green_full_square_black.png,red_half_square_black.png,green_half_square_black.png,5.0,2.0,2.0,1622.0,4656.0,259.0,1249.0,345.0,2.0,,,,,0.0,0,g,234.0,,,,0,1,1.0,484.5,345.0,2.0,4.0,"[(0, 0, 1, 2), (1, 0, 2, 0), (2, 2, 2, 0), (0, 1, 2, 0), (2, 1, 2, 0)]",d,d,s,s,red,green,yellow,half,full,empty,square,square,square,black,black,black,6.0,3.0,3.0,1.0,1.0,19,0,train,8,19,0.9,2.0,2.0,1.0,1.0,"(3, 3, 1, 1)","(2, 2, 1, 1)",0.0,0.0,1.0,1.0
20,563442.0,565443.0,565035.0,565442.0,60ff2046a84c7d1de05f5f87,1.0,0.0,yellow_full_square_grey.png,yellow_full_circle_white.png,green_full_triangle_grey.png,yellow_empty_triangle_white.png,yellow_full_triangle_black.png,5.0,4.0,4.0,1238.0,1861.0,400.0,918.0,125.0,4.0,,,,,0.0,1,s,125.0,,,,0,1,1.0,602.3999999985099,125.0,4.0,4.0,"[(1, 2, 2, 1), (1, 2, 0, 2), (2, 2, 1, 1), (1, 0, 1, 2), (1, 2, 1, 0)]",s,s,d,d,yellow,yellow,yellow,full,full,full,triangle,square,circle,black,grey,white,2.0,1.0,1.0,3.0,3.0,20,1,train,9,20,0.9,1.0,1.0,3.0,3.0,"(1, 1, 3, 3)","(1, 1, 3, 3)",1.0,1.0,1.0,1.0
21,576325.0,578109.0,577814.0,578109.0,60ff2046a84c7d1de05f5f87,0.0,0.0,yellow_empty_triangle_grey.png,yellow_half_square_grey.png,green_full_triangle_black.png,red_full_triangle_grey.png,yellow_full_circle_grey.png,5.0,3.0,3.0,1300.0,1996.0,290.0,835.0,345.0,3.0,,,,,0.0,1,s,125.0,,,,0,1,1.0,535.3999999985099,345.0,3.0,4.0,"[(1, 0, 1, 1), (1, 1, 2, 1), (2, 2, 1, 0), (0, 2, 1, 1), (1, 2, 0, 1)]",s,d,d,s,yellow,yellow,yellow,full,empty,half,circle,triangle,square,grey,grey,grey,2.0,1.0,3.0,3.0,1.0,21,0,train,9,21,0.9,3.0,1.0,2.0,2.0,"(1, 3, 3, 1)","(3, 1, 2, 2)",1.0,1.0,0.0,0.0
22,588225.0,589626.0,589224.0,589625.0,60ff2046a84c7d1de05f5f87,1.0,0.0,green_empty_square_grey.png,green_half_square_black.png,red_full_square_grey.png,green_full_square_white.png,yellow_full_circle_grey.png,4.0,3.0,3.0,1368.0,1220.0,392.0,1520.0,124.0,3.0,,,,,0.0,1,s,124.0,,,,0,1,1.0,667.5,124.0,3.0,4.0,"[(2, 0, 2, 1), (2, 1, 2, 0), (0, 2, 2, 1), (2, 2, 2, 2), (1, 2, 0, 1)]",s,d,s,d,green,green,green,full,empty,half,square,square,square,white,grey,black,1.0,1.0,3.0,1.0,3.0,22,1,train,10,22,0.9,1.0,3.0,1.0,3.0,"(1, 3, 1, 3)","(1, 3, 1, 3)",1.0,1.0,1.0,1.0
23,600858.0,604442.0,604193.0,604442.0,60ff2046a84c7d1de05f5f87,0.0,0.0,red_empty_square_grey.png,green_empty_circle_grey.png,yellow_empty_triangle_grey.png,yellow_empty_circle_black.png,yellow_full_triangle_grey.png,5.0,2.0,2.0,1771.0,1593.0,241.0,1495.0,345.0,2.0,,,,,0.0,0,g,123.0,,,,0,1,1.0,467.29999999701977,345.0,2.0,4.0,"[(0, 0, 2, 1), (2, 0, 0, 1), (1, 0, 1, 1), (1, 0, 0, 0), (1, 2, 1, 1)]",d,s,d,s,red,yellow,green,empty,empty,empty,square,triangle,circle,grey,grey,grey,0.0,3.0,1.0,3.0,1.0,23,0,train,10,23,0.9,1.0,2.0,2.0,2.0,"(3, 1, 3, 1)","(1, 2, 2, 2)",1.0,0.0,0.0,0.0
24,615308.0,616725.0,616352.0,616725.0,60ff2046a84c7d1de05f5f87,0.0,0.0,green_empty_circle_white.png,yellow_full_triangle_white.png,yellow_full_triangle_grey.png,yellow_full_square_white.png,yellow_full_circle_black.png,4.0,4.0,4.0,912.0,854.0,357.0,776.0,234.0,4.0,,,,,0.0,1,s,345.0,,,,0,1,1.0,683.3000000007451,234.0,4.0,4.0,"[(2, 0, 0, 2), (1, 2, 1, 2), (1, 2, 1, 1), (1, 2, 2, 2), (1, 2, 0, 0)]",s,s,d,d,yellow,yellow,yellow,full,full,full,circle,square,triangle,black,white,grey,9.0,1.0,1.0,3.0,3.0,24,0,train,10,24,0.9,1.0,1.0,2.0,2.0,"(1, 1, 3, 3)","(1, 1, 2, 2)",1.0,1.0,0.0,0.0
25,626708.0,630424.0,630080.0,630424.0,60ff2046a84c7d1de05f5f87,1.0,0.0,red_full_square_black.png,red_empty_square_black.png,green_empty_triangle_black.png,yellow_empty_triangle_white.png,yellow_empty_circle_black.png,5.0,3.0,2.0,1520.0,1560.0,330.0,1033.0,235.0,3.0,,,,,0.0,0,g,235.0,,,,0,1,1.0,533.9000000022352,235.0,2.0,4.0,"[(0, 2, 2, 0), (0, 0, 2, 0), (2, 0, 1, 0), (1, 0, 1, 2), (1, 0, 0, 0)]",d,s,d,s,yellow,green,red,empty,empty,empty,circle,triangle,square,black,black,black,7.0,3.0,1.0,3.0,1.0,25,1,train,11,25,0.9,3.0,1.0,3.0,1.0,"(3, 1, 3, 1)","(3, 1, 3, 1)",1.0,1.0,1.0,1.0
26,640974.0,644074.0,643763.0,644074.0,60ff2046a84c7d1de05f5f87,0.0,0.0,green_full_circle_white.png,yellow_empty_square_grey.png,red_empty_square_white.png,green_empty_square_black.png,red_half_triangle_white.png,5.0,2.0,2.0,1323.0,1262.0,308.0,1422.0,135.0,2.0,,,,,0.0,0,g,234.0,,,,0,1,1.0,567.8000000007451,135.0,2.0,4.0,"[(2, 2, 0, 2), (1, 0, 2, 1), (0, 0, 2, 2), (2, 0, 2, 0), (0, 1, 1, 2)]",d,s,s,d,green,red,yellow,empty,empty,empty,square,square,square,black,white,grey,6.0,3.0,1.0,1.0,3.0,26,0,train,11,26,0.9,2.0,3.0,3.0,1.0,"(3, 1, 1, 3)","(2, 3, 3, 1)",0.0,1.0,1.0,1.0
27,655091.0,656157.0,655935.0,656157.0,60ff2046a84c7d1de05f5f87,1.0,0.0,yellow_half_circle_white.png,red_full_circle_black.png,red_half_circle_grey.png,red_empty_circle_white.png,green_empty_square_grey.png,4.0,3.0,3.0,1148.0,1581.0,222.0,897.0,234.0,3.0,,,,,0.0,1,s,234.0,,,,0,1,1.0,466.1999999992549,234.0,3.0,4.0,"[(1, 1, 0, 2), (0, 2, 0, 0), (0, 1, 0, 1), (0, 0, 0, 2), (2, 0, 2, 1)]",s,d,s,d,red,red,red,empty,half,full,circle,circle,circle,white,grey,black,6.0,1.0,3.0,1.0,3.0,27,1,train,12,27,0.9,1.0,3.0,1.0,3.0,"(1, 3, 1, 3)","(1, 3, 1, 3)",1.0,1.0,1.0,1.0
28,666024.0,667824.0,667317.0,667824.0,60ff2046a84c7d1de05f5f87,1.0,0.0,yellow_full_triangle_white.png,yellow_full_square_grey.png,yellow_half_circle_white.png,green_empty_square_grey.png,yellow_full_circle_black.png,5.0,4.0,4.0,1160.0,1089.0,504.0,670.0,125.0,4.0,,,,,0.0,1,s,125.0,,,,0,1,1.0,1015.9000000022352,125.0,4.0,4.0,"[(1, 2, 1, 2), (1, 2, 2, 1), (1, 1, 0, 2), (2, 0, 2, 1), (1, 2, 0, 0)]",s,s,d,d,yellow,yellow,yellow,full,full,full,circle,triangle,square,black,white,grey,2.0,1.0,1.0,3.0,3.0,28,1,train,13,28,0.9,1.0,1.0,3.0,3.0,"(1, 1, 3, 3)","(1, 1, 3, 3)",1.0,1.0,1.0,1.0
29,678091.0,682407.0,682184.0,682407.0,60ff2046a84c7d1de05f5f87,0.0,0.0,yellow_half_triangle_grey.png,red_empty_square_grey.png,yellow_empty_triangle_black.png,yellow_full_triangle_white.png,yellow_empty_triangle_grey.png,5.0,3.0,3.0,1040.0,1700.0,209.0,657.0,135.0,3.0,,,,,0.0,1,s,134.0,,,,0,1,1.0,1350.0,135.0,3.0,4.0,"[(1, 1, 1, 1), (0, 0, 2, 1), (1, 0, 1, 0), (1, 2, 1, 2), (1, 0, 1, 1)]",s,d,s,d,yellow,yellow,yellow,full,half,empty,triangle,triangle,triangle,white,grey,black,3.0,1.0,3.0,1.0,3.0,29,0,train,13,29,0.9,1.0,2.0,1.0,2.0,"(1, 3, 1, 3)","(1, 2, 1, 2)",1.0,0.0,1.0,0.0
30,827239.0,829505.0,829132.0,829505.0,60ff2046a84c7d1de05f5f87,1.0,0.0,red_full_square_white.png,red_empty_circle_white.png,red_half_triangle_white.png,red_full_triangle_black.png,yellow_empty_square_grey.png,3.0,3.0,3.0,1868.0,2209.0,372.0,1147.0,123.0,3.0,,,,,0.0,1,s,123.0,,,,0,1,2.0,632.5999999977648,123.0,3.0,4.0,"[(0, 2, 2, 2), (0, 0, 0, 2), (0, 1, 1, 2), (0, 2, 1, 0), (1, 0, 2, 1)]",s,d,d,s,red,red,red,full,half,empty,square,triangle,circle,white,white,white,0.0,1.0,3.0,3.0,1.0,30,1,train,14,0,0.9,1.0,3.0,3.0,1.0,"(1, 3, 3, 1)","(1, 3, 3, 1)",1.0,1.0,1.0,1.0
31,840972.0,844956.0,844745.0,844956.0,60ff2046a84c7d1de05f5f87,0.0,0.0,red_empty_triangle_grey.png,red_empty_square_white.png,green_half_triangle_grey.png,red_half_triangle_grey.png,yellow_full_triangle_grey.png,4.0,2.0,3.0,1311.0,1700.0,208.0,1782.0,134.0,2.0,,,,,0.0,0,g,135.0,,,,0,1,2.0,1767.5,134.0,3.0,4.0,"[(0, 0, 1, 1), (0, 0, 2, 2), (2, 1, 1, 1), (0, 1, 1, 1), (1, 2, 1, 1)]",d,d,s,s,yellow,red,green,full,empty,half,triangle,triangle,triangle,grey,grey,grey,4.0,3.0,3.0,1.0,1.0,31,0,train,14,1,0.9,2.0,2.0,1.0,1.0,"(3, 3, 1, 1)","(2, 2, 1, 1)",0.0,0.0,1.0,1.0
32,856305.0,857722.0,857459.0,857722.0,60ff2046a84c7d1de05f5f87,0.0,0.0,green_empty_circle_grey.png,yellow_empty_triangle_grey.png,yellow_half_triangle_white.png,yellow_empty_triangle_black.png,red_empty_square_grey.png,4.0,4.0,4.0,1041.0,1527.0,250.0,689.0,234.0,4.0,,,,,0.0,1,s,125.0,,,,0,1,2.0,734.1000000014901,234.0,4.0,4.0,"[(2, 0, 0, 1), (1, 0, 1, 1), (1, 1, 1, 2), (1, 0, 1, 0), (0, 0, 2, 1)]",d,s,d,s,red,green,yellow,empty,empty,empty,square,circle,triangle,grey,grey,grey,2.0,3.0,1.0,3.0,1.0,32,0,train,14,2,0.9,1.0,2.0,1.0,3.0,"(3, 1, 3, 1)","(1, 2, 1, 3)",1.0,0.0,1.0,1.0
33,869255.0,872972.0,872647.0,872971.0,60ff2046a84c7d1de05f5f87,1.0,0.0,green_half_square_black.png,red_empty_square_black.png,yellow_full_square_white.png,yellow_full_square_black.png,green_empty_triangle_grey.png,4.0,3.0,2.0,2064.0,3053.0,319.0,1038.0,124.0,3.0,,,,,0.0,0,g,124.0,,,,0,1,2.0,567.8999999985099,124.0,2.0,4.0,"[(2, 1, 2, 0), (0, 0, 2, 0), (1, 2, 2, 2), (1, 2, 2, 0), (2, 0, 1, 1)]",d,d,s,s,yellow,green,red,full,half,empty,square,square,square,black,black,black,1.0,3.0,3.0,1.0,1.0,33,1,train,15,3,0.9,3.0,3.0,1.0,1.0,"(3, 3, 1, 1)","(3, 3, 1, 1)",1.0,1.0,1.0,1.0
34,885388.0,889938.0,889179.0,889937.0,60ff2046a84c7d1de05f5f87,1.0,0.0,red_half_triangle_grey.png,red_half_circle_black.png,yellow_empty_circle_black.png,red_full_square_white.png,green_full_circle_black.png,5.0,3.0,2.0,1516.0,2598.0,758.0,828.0,235.0,3.0,,,,,0.0,0,g,235.0,,,,0,1,2.0,1051.89999999851,235.0,2.0,4.0,"[(0, 1, 1, 1), (0, 1, 0, 0), (1, 0, 0, 0), (0, 2, 2, 2), (2, 2, 0, 0)]",d,d,s,s,green,yellow,red,full,empty,half,circle,circle,circle,black,black,black,7.0,3.0,3.0,1.0,1.0,34,1,train,16,4,0.9,3.0,3.0,1.0,1.0,"(3, 3, 1, 1)","(3, 3, 1, 1)",1.0,1.0,1.0,1.0
35,900704.0,911071.0,910827.0,911071.0,60ff2046a84c7d1de05f5f87,0.0,0.0,yellow_empty_circle_grey.png,green_half_square_grey.png,green_half_triangle_white.png,green_half_square_white.png,green_half_circle_black.png,4.0,2.0,2.0,1448.0,1639.0,230.0,1912.0,234.0,2.0,,,,,0.0,0,g,235.0,,,,0,1,2.0,567.1999999992549,234.0,2.0,4.0,"[(1, 0, 0, 1), (2, 1, 2, 1), (2, 1, 1, 2), (2, 1, 2, 2), (2, 1, 0, 0)]",s,s,d,d,green,green,green,half,half,half,circle,triangle,square,black,white,grey,7.0,1.0,1.0,3.0,3.0,35,0,train,16,5,0.9,1.0,1.0,2.0,2.0,"(1, 1, 3, 3)","(1, 1, 2, 2)",1.0,1.0,0.0,0.0
36,922620.0,924804.0,924378.0,924804.0,60ff2046a84c7d1de05f5f87,1.0,0.0,green_empty_triangle_white.png,green_half_square_grey.png,green_empty_circle_grey.png,red_empty_circle_black.png,green_empty_square_black.png,5.0,4.0,4.0,1142.0,1462.0,410.0,1122.0,135.0,4.0,,,,,0.0,1,s,135.0,,,,0,1,2.0,1183.9000000022352,135.0,4.0,4.0,"[(2, 0, 1, 2), (2, 1, 2, 1), (2, 0, 0, 1), (0, 0, 0, 0), (2, 0, 2, 0)]",s,s,d,d,green,green,green,empty,empty,empty,square,triangle,circle,black,white,grey,4.0,1.0,1.0,3.0,3.0,36,1,train,17,6,0.9,1.0,1.0,3.0,3.0,"(1, 1, 3, 3)","(1, 1, 3, 3)",1.0,1.0,1.0,1.0
37,936154.0,939838.0,939461.0,939837.0,60ff2046a84c7d1de05f5f87,0.0,0.0,green_full_triangle_white.png,red_half_triangle_white.png,red_full_square_black.png,red_empty_triangle_white.png,yellow_empty_triangle_white.png,5.0,3.0,3.0,1454.0,2385.0,366.0,343.0,245.0,3.0,,,,,0.0,0,g,125.0,,,,0,1,2.0,817.6000000014901,245.0,3.0,4.0,"[(2, 2, 1, 2), (0, 1, 1, 2), (0, 2, 2, 0), (0, 0, 1, 2), (1, 0, 1, 2)]",d,d,s,s,yellow,green,red,empty,full,half,triangle,triangle,triangle,white,white,white,2.0,3.0,3.0,1.0,1.0,37,0,train,17,7,0.9,2.0,2.0,1.0,1.0,"(3, 3, 1, 1)","(2, 2, 1, 1)",0.0,0.0,1.0,1.0
38,950454.0,953787.0,953223.0,953787.0,60ff2046a84c7d1de05f5f87,0.0,0.0,red_half_square_white.png,yellow_half_square_white.png,green_full_square_white.png,green_half_triangle_grey.png,red_empty_square_white.png,5.0,2.0,3.0,1957.0,2067.0,562.0,2116.0,125.0,2.0,,,,,0.0,1,s,235.0,,,,0,1,2.0,1016.60000000149,125.0,3.0,4.0,"[(0, 1, 2, 2), (1, 1, 2, 2), (2, 2, 2, 2), (2, 1, 1, 1), (0, 0, 2, 2)]",d,d,s,s,red,green,yellow,empty,full,half,square,square,square,white,white,white,7.0,3.0,3.0,1.0,1.0,38,0,train,17,8,0.9,2.0,2.0,1.0,1.0,"(3, 3, 1, 1)","(2, 2, 1, 1)",0.0,0.0,1.0,1.0
39,966221.0,968688.0,968380.0,968687.0,60ff2046a84c7d1de05f5f87,1.0,0.0,yellow_empty_square_grey.png,red_empty_square_white.png,green_half_triangle_white.png,yellow_half_square_white.png,yellow_full_square_black.png,5.0,4.0,3.0,1674.0,1589.0,303.0,657.0,145.0,4.0,,,,,0.0,1,s,145.0,,,,0,1,2.0,684.5999999977648,145.0,3.0,4.0,"[(1, 0, 2, 1), (0, 0, 2, 2), (2, 1, 1, 2), (1, 1, 2, 2), (1, 2, 2, 0)]",s,d,s,d,yellow,yellow,yellow,full,half,empty,square,square,square,black,white,grey,5.0,1.0,3.0,1.0,3.0,39,1,train,18,9,0.9,1.0,3.0,1.0,3.0,"(1, 3, 1, 3)","(1, 3, 1, 3)",1.0,1.0,1.0,1.0
40,978870.0,980570.0,980295.0,980570.0,60ff2046a84c7d1de05f5f87,0.0,0.0,red_half_triangle_grey.png,green_half_triangle_black.png,yellow_half_triangle_white.png,green_full_circle_black.png,green_half_square_white.png,5.0,3.0,4.0,2301.0,1103.0,262.0,1308.0,245.0,3.0,,,,,0.0,0,g,123.0,,,,0,1,2.0,900.6000000014901,245.0,4.0,4.0,"[(0, 1, 1, 1), (2, 1, 1, 0), (1, 1, 1, 2), (2, 2, 0, 0), (2, 1, 2, 2)]",d,s,s,d,red,yellow,green,half,half,half,triangle,triangle,triangle,grey,white,black,0.0,3.0,1.0,1.0,3.0,40,0,train,18,10,0.9,1.0,2.0,3.0,2.0,"(3, 1, 1, 3)","(1, 2, 3, 2)",1.0,0.0,1.0,0.0
41,992137.0,993853.0,993379.0,993853.0,60ff2046a84c7d1de05f5f87,0.0,0.0,red_half_triangle_white.png,red_empty_square_grey.png,green_full_square_white.png,yellow_full_circle_white.png,red_full_triangle_white.png,5.0,3.0,3.0,3005.0,1234.0,460.0,1664.0,125.0,3.0,,,,,0.0,0,g,345.0,,,,0,1,2.0,684.8000000007451,125.0,3.0,4.0,"[(0, 1, 1, 2), (0, 0, 2, 1), (2, 2, 2, 2), (1, 2, 0, 2), (0, 2, 1, 2)]",d,s,d,s,red,yellow,green,full,full,full,triangle,circle,square,white,white,white,9.0,3.0,1.0,3.0,1.0,41,0,train,18,11,0.9,1.0,3.0,2.0,2.0,"(3, 1, 3, 1)","(1, 3, 2, 2)",1.0,1.0,0.0,0.0
42,1006186.0,1008070.0,1007780.0,1008069.0,60ff2046a84c7d1de05f5f87,1.0,0.0,yellow_full_square_white.png,green_full_circle_grey.png,red_half_triangle_white.png,green_full_square_grey.png,red_full_square_black.png,5.0,4.0,4.0,1158.0,905.0,274.0,1738.0,145.0,4.0,,,,,0.0,1,s,145.0,,,,0,1,2.0,833.6000000014901,145.0,4.0,4.0,"[(1, 2, 2, 2), (2, 2, 0, 1), (0, 1, 1, 2), (2, 2, 2, 1), (0, 2, 2, 0)]",d,s,s,d,red,green,yellow,full,full,full,square,square,square,black,grey,white,5.0,3.0,1.0,1.0,3.0,42,1,train,19,12,0.9,3.0,1.0,1.0,3.0,"(3, 1, 1, 3)","(3, 1, 1, 3)",1.0,1.0,1.0,1.0
43,1019019.0,1021920.0,1021572.0,1021919.0,60ff2046a84c7d1de05f5f87,1.0,0.0,green_half_square_black.png,green_empty_square_black.png,yellow_half_circle_black.png,red_full_square_white.png,red_half_triangle_black.png,5.0,3.0,3.0,1154.0,1301.0,340.0,1898.0,135.0,3.0,,,,,0.0,1,s,135.0,,,,0,1,2.0,1584.300000000745,135.0,3.0,4.0,"[(2, 1, 2, 0), (2, 0, 2, 0), (1, 1, 0, 0), (0, 2, 2, 2), (0, 1, 1, 0)]",d,s,d,s,red,green,yellow,half,half,half,triangle,square,circle,black,black,black,4.0,3.0,1.0,3.0,1.0,43,1,train,20,13,0.9,3.0,1.0,3.0,1.0,"(3, 1, 3, 1)","(3, 1, 3, 1)",1.0,1.0,1.0,1.0
44,1033052.0,1036653.0,1036223.0,1036652.0,60ff2046a84c7d1de05f5f87,1.0,0.0,yellow_full_square_white.png,yellow_empty_triangle_white.png,red_half_square_white.png,yellow_empty_square_grey.png,yellow_half_circle_white.png,5.0,3.0,2.0,1872.0,1316.0,418.0,1267.0,125.0,3.0,,,,,0.0,0,g,125.0,,,,0,1,2.0,600.6999999992549,125.0,2.0,4.0,"[(1, 2, 2, 2), (1, 0, 1, 2), (0, 1, 2, 2), (1, 0, 2, 1), (1, 1, 0, 2)]",s,d,d,s,yellow,yellow,yellow,half,full,empty,circle,square,triangle,white,white,white,2.0,1.0,3.0,3.0,1.0,44,1,train,21,14,0.9,1.0,3.0,3.0,1.0,"(1, 3, 3, 1)","(1, 3, 3, 1)",1.0,1.0,1.0,1.0
45,1048503.0,1052203.0,1051773.0,1052202.0,60ff2046a84c7d1de05f5f87,0.0,0.0,green_empty_square_black.png,green_half_square_grey.png,red_full_circle_grey.png,green_full_square_grey.png,green_half_square_white.png,5.0,2.0,2.0,2057.0,1957.0,418.0,1938.0,125.0,2.0,,,,,0.0,1,s,145.0,,,,0,1,2.0,617.1000000014901,125.0,2.0,4.0,"[(2, 0, 2, 0), (2, 1, 2, 1), (0, 2, 0, 1), (2, 2, 2, 1), (2, 1, 2, 2)]",s,d,s,d,green,green,green,half,full,empty,square,square,square,white,grey,black,5.0,1.0,3.0,1.0,3.0,45,0,train,21,15,0.9,1.0,2.0,1.0,3.0,"(1, 3, 1, 3)","(1, 2, 1, 3)",1.0,0.0,1.0,1.0
46,1063452.0,1065069.0,1064859.0,1065069.0,60ff2046a84c7d1de05f5f87,1.0,0.0,green_empty_square_white.png,red_full_circle_black.png,green_full_circle_white.png,yellow_full_circle_grey.png,green_half_triangle_grey.png,4.0,4.0,4.0,496.0,534.0,199.0,1635.0,234.0,4.0,,,,,0.0,1,s,234.0,,,,0,1,2.0,434.0999999977648,234.0,4.0,4.0,"[(2, 0, 2, 2), (0, 2, 0, 0), (2, 2, 0, 2), (1, 2, 0, 1), (2, 1, 1, 1)]",d,s,s,d,yellow,green,red,full,full,full,circle,circle,circle,grey,white,black,6.0,3.0,1.0,1.0,3.0,46,1,train,22,16,0.9,3.0,1.0,1.0,3.0,"(3, 1, 1, 3)","(3, 1, 1, 3)",1.0,1.0,1.0,1.0
47,1075119.0,1077102.0,1076429.0,1077102.0,60ff2046a84c7d1de05f5f87,0.0,0.0,red_half_square_white.png,red_half_square_grey.png,red_half_circle_black.png,yellow_empty_square_white.png,red_half_triangle_white.png,5.0,3.0,3.0,1044.0,1180.0,670.0,755.0,125.0,3.0,,,,,0.0,0,g,235.0,,,,0,1,2.0,1051.300000000745,125.0,3.0,4.0,"[(0, 1, 2, 2), (0, 1, 2, 1), (0, 1, 0, 0), (1, 0, 2, 2), (0, 1, 1, 2)]",s,s,d,d,red,red,red,half,half,half,triangle,circle,square,white,black,grey,7.0,1.0,1.0,3.0,3.0,47,0,train,22,17,0.9,1.0,1.0,2.0,2.0,"(1, 1, 3, 3)","(1, 1, 2, 2)",1.0,1.0,0.0,0.0
48,1086752.0,1088485.0,1088222.0,1088485.0,60ff2046a84c7d1de05f5f87,1.0,0.0,red_half_circle_grey.png,red_full_circle_black.png,red_full_square_grey.png,red_full_triangle_white.png,yellow_empty_circle_black.png,4.0,4.0,4.0,448.0,1118.0,255.0,414.0,234.0,4.0,,,,,0.0,1,s,234.0,,,,0,1,2.0,484.1999999992549,234.0,4.0,4.0,"[(0, 1, 0, 1), (0, 2, 0, 0), (0, 2, 2, 1), (0, 2, 1, 2), (1, 0, 0, 0)]",s,s,d,d,red,red,red,full,full,full,triangle,square,circle,white,grey,black,6.0,1.0,1.0,3.0,3.0,48,1,train,23,18,0.9,1.0,1.0,3.0,3.0,"(1, 1, 3, 3)","(1, 1, 3, 3)",1.0,1.0,1.0,1.0
49,1098785.0,1102569.0,1102095.0,1102568.0,60ff2046a84c7d1de05f5f87,0.0,0.0,green_full_triangle_white.png,green_full_circle_white.png,green_full_square_black.png,green_full_circle_grey.png,yellow_half_triangle_grey.png,4.0,2.0,2.0,1746.0,2697.0,465.0,990.0,124.0,2.0,,,,,0.0,0,g,134.0,,,,0,1,2.0,583.6000000014901,124.0,2.0,4.0,"[(2, 2, 1, 2), (2, 2, 0, 2), (2, 2, 2, 0), (2, 2, 0, 1), (1, 1, 1, 1)]",s,s,d,d,green,green,green,full,full,full,circle,triangle,square,grey,white,black,3.0,1.0,1.0,3.0,3.0,49,0,train,23,19,0.9,1.0,1.0,2.0,2.0,"(1, 1, 3, 3)","(1, 1, 2, 2)",1.0,1.0,0.0,0.0
50,1114851.0,1119218.0,1118858.0,1119218.0,60ff2046a84c7d1de05f5f87,1.0,0.0,yellow_empty_square_white.png,yellow_half_triangle_white.png,red_full_triangle_white.png,yellow_full_circle_white.png,yellow_full_circle_black.png,4.0,1.0,2.0,1480.0,2821.0,352.0,814.0,124.0,1.0,,,,,0.0,0,g,124.0,,,,0,1,2.0,517.3999999985099,124.0,2.0,4.0,"[(1, 0, 2, 2), (1, 1, 1, 2), (0, 2, 1, 2), (1, 2, 0, 2), (1, 2, 0, 0)]",s,d,d,s,yellow,yellow,yellow,full,empty,half,circle,square,triangle,white,white,white,1.0,1.0,3.0,3.0,1.0,50,1,train,24,20,0.9,1.0,3.0,3.0,1.0,"(1, 3, 3, 1)","(1, 3, 3, 1)",1.0,1.0,1.0,1.0
51,1129351.0,1131135.0,1130539.0,1131134.0,60ff2046a84c7d1de05f5f87,1.0,0.0,yellow_full_circle_black.png,green_full_triangle_white.png,yellow_half_triangle_white.png,green_empty_square_grey.png,red_empty_triangle_white.png,5.0,2.0,3.0,1711.0,1096.0,587.0,2026.0,235.0,2.0,,,,,0.0,1,s,235.0,,,,0,1,2.0,883.8000000007451,235.0,3.0,4.0,"[(1, 2, 0, 0), (2, 2, 1, 2), (1, 1, 1, 2), (2, 0, 2, 1), (0, 0, 1, 2)]",d,d,s,s,red,yellow,green,empty,half,full,triangle,triangle,triangle,white,white,white,7.0,3.0,3.0,1.0,1.0,51,1,train,25,21,0.9,3.0,3.0,1.0,1.0,"(3, 3, 1, 1)","(3, 3, 1, 1)",1.0,1.0,1.0,1.0
52,1142818.0,1144618.0,1144361.0,1144618.0,60ff2046a84c7d1de05f5f87,1.0,0.0,red_half_square_grey.png,green_half_triangle_white.png,yellow_empty_triangle_black.png,red_half_triangle_grey.png,yellow_half_triangle_black.png,5.0,3.0,3.0,1140.0,1213.0,245.0,472.0,245.0,3.0,,,,,0.0,1,s,245.0,,,,0,1,2.0,951.8000000007452,245.0,3.0,4.0,"[(0, 1, 2, 1), (2, 1, 1, 2), (1, 0, 1, 0), (0, 1, 1, 1), (1, 1, 1, 0)]",d,s,s,d,yellow,red,green,half,half,half,triangle,triangle,triangle,black,grey,white,8.0,3.0,1.0,1.0,3.0,52,1,train,26,22,0.9,3.0,1.0,1.0,3.0,"(3, 1, 1, 3)","(3, 1, 1, 3)",1.0,1.0,1.0,1.0
53,1154367.0,1155818.0,1155376.0,1155817.0,60ff2046a84c7d1de05f5f87,1.0,0.0,green_half_square_black.png,green_half_triangle_grey.png,red_empty_triangle_grey.png,green_half_circle_white.png,yellow_full_triangle_black.png,4.0,4.0,4.0,1337.0,1368.0,435.0,481.0,124.0,4.0,,,,,0.0,1,s,124.0,,,,0,1,2.0,751.3000000007451,124.0,4.0,4.0,"[(2, 1, 2, 0), (2, 1, 1, 1), (0, 0, 1, 1), (2, 1, 0, 2), (1, 2, 1, 0)]",s,s,d,d,green,green,green,half,half,half,circle,square,triangle,white,black,grey,1.0,1.0,1.0,3.0,3.0,53,1,train,27,23,0.9,1.0,1.0,3.0,3.0,"(1, 1, 3, 3)","(1, 1, 3, 3)",1.0,1.0,1.0,1.0
54,1165667.0,1167701.0,1167442.0,1167700.0,60ff2046a84c7d1de05f5f87,1.0,0.0,yellow_empty_triangle_black.png,green_empty_triangle_black.png,red_half_square_white.png,yellow_full_triangle_white.png,yellow_half_triangle_grey.png,5.0,3.0,2.0,1120.0,1290.0,245.0,2142.0,145.0,3.0,,,,,0.0,1,s,145.0,,,,0,1,2.0,1034.0,145.0,2.0,4.0,"[(1, 0, 1, 0), (2, 0, 1, 0), (0, 1, 2, 2), (1, 2, 1, 2), (1, 1, 1, 1)]",s,d,s,d,yellow,yellow,yellow,half,full,empty,triangle,triangle,triangle,grey,white,black,5.0,1.0,3.0,1.0,3.0,54,1,train,28,24,0.9,1.0,3.0,1.0,3.0,"(1, 3, 1, 3)","(1, 3, 1, 3)",1.0,1.0,1.0,1.0
55,1179550.0,1181650.0,1181287.0,1181650.0,60ff2046a84c7d1de05f5f87,1.0,0.0,red_empty_triangle_white.png,green_empty_circle_white.png,yellow_full_square_white.png,yellow_empty_square_white.png,red_empty_square_black.png,4.0,3.0,2.0,1612.0,1871.0,349.0,1788.0,124.0,3.0,,,,,0.0,1,s,124.0,,,,0,1,2.0,549.0999999977648,124.0,2.0,4.0,"[(0, 0, 1, 2), (2, 0, 0, 2), (1, 2, 2, 2), (1, 0, 2, 2), (0, 0, 2, 0)]",d,s,d,s,yellow,red,green,empty,empty,empty,square,triangle,circle,white,white,white,1.0,3.0,1.0,3.0,1.0,55,1,train,29,25,0.9,3.0,1.0,3.0,1.0,"(3, 1, 3, 1)","(3, 1, 3, 1)",1.0,1.0,1.0,1.0
56,1194767.0,1198151.0,1197858.0,1198150.0,60ff2046a84c7d1de05f5f87,1.0,0.0,red_half_triangle_white.png,green_full_square_black.png,red_full_triangle_black.png,yellow_half_triangle_black.png,green_empty_triangle_black.png,5.0,2.0,2.0,2085.0,2969.0,276.0,912.0,345.0,2.0,,,,,0.0,0,g,345.0,,,,0,1,2.0,500.5,345.0,2.0,4.0,"[(0, 1, 1, 2), (2, 2, 2, 0), (0, 2, 1, 0), (1, 1, 1, 0), (2, 0, 1, 0)]",d,d,s,s,green,yellow,red,empty,half,full,triangle,triangle,triangle,black,black,black,9.0,3.0,3.0,1.0,1.0,56,1,train,30,26,0.9,3.0,3.0,1.0,1.0,"(3, 3, 1, 1)","(3, 3, 1, 1)",1.0,1.0,1.0,1.0
57,1208583.0,1210134.0,1209910.0,1210133.0,60ff2046a84c7d1de05f5f87,1.0,0.0,green_half_square_white.png,yellow_full_square_white.png,yellow_empty_triangle_black.png,yellow_empty_square_black.png,yellow_half_square_grey.png,5.0,3.0,3.0,1384.0,685.0,217.0,564.0,245.0,3.0,,,,,0.0,1,s,245.0,,,,0,1,2.0,951.2999999970198,245.0,3.0,4.0,"[(2, 1, 2, 2), (1, 2, 2, 2), (1, 0, 1, 0), (1, 0, 2, 0), (1, 1, 2, 1)]",s,d,s,d,yellow,yellow,yellow,half,empty,full,square,square,square,grey,black,white,8.0,1.0,3.0,1.0,3.0,57,1,train,31,27,0.9,1.0,3.0,1.0,3.0,"(1, 3, 1, 3)","(1, 3, 1, 3)",1.0,1.0,1.0,1.0
58,1220366.0,1222066.0,1221824.0,1222066.0,60ff2046a84c7d1de05f5f87,1.0,0.0,green_empty_circle_grey.png,red_empty_triangle_black.png,yellow_empty_square_grey.png,green_half_triangle_grey.png,green_full_square_grey.png,5.0,3.0,3.0,1348.0,1523.0,240.0,352.0,145.0,3.0,,,,,0.0,1,s,145.0,,,,0,1,2.0,732.8999999985099,145.0,3.0,4.0,"[(2, 0, 0, 1), (0, 0, 1, 0), (1, 0, 2, 1), (2, 1, 1, 1), (2, 2, 2, 1)]",s,d,d,s,green,green,green,full,half,empty,square,triangle,circle,grey,grey,grey,5.0,1.0,3.0,3.0,1.0,58,1,train,32,28,0.9,1.0,3.0,3.0,1.0,"(1, 3, 3, 1)","(1, 3, 3, 1)",1.0,1.0,1.0,1.0
59,1232666.0,1239017.0,1238698.0,1239016.0,60ff2046a84c7d1de05f5f87,0.0,0.0,green_empty_square_white.png,green_empty_square_grey.png,red_half_circle_white.png,green_empty_circle_white.png,green_empty_triangle_black.png,4.0,2.0,2.0,1200.0,2149.0,304.0,515.0,124.0,2.0,,,,,0.0,0,g,245.0,,,,0,1,2.0,567.1999999992549,124.0,2.0,4.0,"[(2, 0, 2, 2), (2, 0, 2, 1), (0, 1, 0, 2), (2, 0, 0, 2), (2, 0, 1, 0)]",s,s,d,d,green,green,green,empty,empty,empty,triangle,circle,square,black,white,grey,8.0,1.0,1.0,3.0,3.0,59,0,train,32,29,0.9,1.0,1.0,2.0,2.0,"(1, 1, 3, 3)","(1, 1, 2, 2)",1.0,1.0,0.0,0.0
60,1513212.0,1514979.0,1514769.0,1514979.0,60ff2046a84c7d1de05f5f87,0.0,0.0,yellow_full_square_black.png,red_full_triangle_grey.png,yellow_empty_square_grey.png,yellow_full_square_grey.png,green_full_circle_grey.png,4.0,3.0,3.0,1504.0,1225.0,199.0,3668.0,134.0,3.0,,,,,0.0,1,s,245.0,,,,0,1,3.0,1000.5999999977648,134.0,3.0,4.0,"[(1, 2, 2, 0), (0, 2, 1, 1), (1, 0, 2, 1), (1, 2, 2, 1), (2, 2, 0, 1)]",d,s,d,s,green,yellow,red,full,full,full,circle,square,triangle,grey,grey,grey,8.0,3.0,1.0,3.0,1.0,60,0,test,32,0,0.9,1.0,2.0,1.0,2.0,"(3, 1, 3, 1)","(1, 2, 1, 2)",1.0,0.0,1.0,0.0
61,1528046.0,1529996.0,1529654.0,1529996.0,60ff2046a84c7d1de05f5f87,1.0,0.0,green_full_triangle_black.png,red_half_circle_grey.png,yellow_full_triangle_grey.png,yellow_full_square_white.png,red_full_triangle_white.png,5.0,3.0,3.0,1913.0,1180.0,327.0,1090.0,135.0,3.0,,,,,0.0,1,s,135.0,,,,0,1,3.0,617.1999999992549,135.0,3.0,4.0,"[(2, 2, 1, 0), (0, 1, 0, 1), (1, 2, 1, 1), (1, 2, 2, 2), (0, 2, 1, 2)]",d,s,s,d,red,green,yellow,full,full,full,triangle,triangle,triangle,white,black,grey,4.0,3.0,1.0,1.0,3.0,61,1,test,33,1,0.9,3.0,1.0,1.0,3.0,"(3, 1, 1, 3)","(3, 1, 1, 3)",1.0,1.0,1.0,1.0
62,1541579.0,1544729.0,1544522.0,1544728.0,60ff2046a84c7d1de05f5f87,1.0,0.0,red_full_triangle_black.png,yellow_empty_circle_black.png,red_half_circle_black.png,red_empty_square_black.png,yellow_half_circle_black.png,4.0,3.0,2.0,898.0,1844.0,193.0,869.0,134.0,3.0,,,,,0.0,0,g,134.0,,,,0,1,3.0,1116.7000000029802,134.0,2.0,0.0,"[(0, 2, 1, 0), (1, 0, 0, 0), (0, 1, 0, 0), (0, 0, 2, 0), (1, 1, 0, 0)]",s,d,d,s,red,red,red,empty,full,half,square,triangle,circle,black,black,black,3.0,1.0,3.0,3.0,1.0,62,1,test,34,2,0.9,1.0,3.0,3.0,1.0,"(1, 3, 3, 1)","(1, 3, 3, 1)",1.0,1.0,1.0,1.0
63,1554662.0,1556362.0,1555783.0,1556362.0,60ff2046a84c7d1de05f5f87,1.0,0.0,yellow_full_triangle_black.png,yellow_empty_square_black.png,green_empty_circle_white.png,yellow_half_circle_black.png,red_half_triangle_white.png,4.0,3.0,3.0,1289.0,1416.0,573.0,4933.0,124.0,3.0,,,,,0.0,1,s,124.0,,,,0,1,3.0,850.5,124.0,3.0,1.0,"[(1, 2, 1, 0), (1, 0, 2, 0), (2, 0, 0, 2), (1, 1, 0, 0), (0, 1, 1, 2)]",s,d,d,s,yellow,yellow,yellow,half,full,empty,circle,triangle,square,black,black,black,1.0,1.0,3.0,3.0,1.0,63,1,test,35,3,0.9,1.0,3.0,3.0,1.0,"(1, 3, 3, 1)","(1, 3, 3, 1)",1.0,1.0,1.0,1.0
64,1570945.0,1574345.0,1572471.0,1574345.0,60ff2046a84c7d1de05f5f87,0.0,0.0,red_half_square_grey.png,red_half_triangle_grey.png,yellow_full_circle_black.png,red_empty_triangle_black.png,red_full_triangle_white.png,4.0,1.0,3.0,1707.0,1619.0,1861.0,3419.0,124.0,1.0,,,,,0.0,1,s,245.0,,,,0,1,3.0,2317.10000000149,124.0,3.0,4.0,"[(0, 1, 2, 1), (0, 1, 1, 1), (1, 2, 0, 0), (0, 0, 1, 0), (0, 2, 1, 2)]",s,d,s,d,red,red,red,full,empty,half,triangle,triangle,triangle,white,black,grey,8.0,1.0,3.0,1.0,3.0,64,0,test,35,4,0.9,1.0,2.0,2.0,2.0,"(1, 3, 1, 3)","(1, 2, 2, 2)",1.0,0.0,0.0,0.0
65,1588045.0,1594462.0,1594237.0,1594461.0,60ff2046a84c7d1de05f5f87,0.0,0.0,red_half_triangle_grey.png,yellow_full_triangle_white.png,green_half_triangle_white.png,red_full_triangle_white.png,yellow_empty_triangle_white.png,4.0,2.0,2.0,1345.0,1827.0,216.0,1649.0,234.0,2.0,,,,,0.0,0,g,345.0,,,,0,1,3.0,384.5999999977648,234.0,2.0,3.0,"[(0, 1, 1, 1), (1, 2, 1, 2), (2, 1, 1, 2), (0, 2, 1, 2), (1, 0, 1, 2)]",d,d,s,s,yellow,red,green,empty,full,half,triangle,triangle,triangle,white,white,white,9.0,3.0,3.0,1.0,1.0,65,0,test,35,5,0.9,3.0,2.0,1.0,1.0,"(3, 3, 1, 1)","(3, 2, 1, 1)",1.0,0.0,1.0,1.0
66,1606878.0,1611361.0,1611076.0,1611361.0,60ff2046a84c7d1de05f5f87,0.0,0.0,green_empty_triangle_grey.png,green_empty_triangle_black.png,yellow_empty_triangle_white.png,red_empty_square_black.png,red_empty_triangle_black.png,5.0,3.0,2.0,924.0,2677.0,284.0,10071.0,245.0,3.0,,,,,0.0,0,g,135.0,,,,0,1,3.0,483.80000000074506,245.0,2.0,3.0,"[(2, 0, 1, 1), (2, 0, 1, 0), (1, 0, 1, 2), (0, 0, 2, 0), (0, 0, 1, 0)]",d,s,s,d,red,green,yellow,empty,empty,empty,triangle,triangle,triangle,black,grey,white,4.0,3.0,1.0,1.0,3.0,66,0,test,35,6,0.9,2.0,1.0,2.0,1.0,"(3, 1, 1, 3)","(2, 1, 2, 1)",0.0,1.0,0.0,1.0
67,1630327.0,1631494.0,1631219.0,1631494.0,60ff2046a84c7d1de05f5f87,1.0,0.0,red_half_square_black.png,green_half_square_black.png,red_empty_circle_white.png,green_full_square_white.png,green_empty_square_grey.png,5.0,3.0,3.0,3693.0,1234.0,274.0,1254.0,245.0,3.0,,,,,0.0,1,s,245.0,,,,0,1,3.0,534.0,245.0,3.0,1.0,"[(0, 1, 2, 0), (2, 1, 2, 0), (0, 0, 0, 2), (2, 2, 2, 2), (2, 0, 2, 1)]",s,d,s,d,green,green,green,empty,full,half,square,square,square,grey,white,black,8.0,1.0,3.0,1.0,3.0,67,1,test,36,7,0.9,1.0,3.0,1.0,3.0,"(1, 3, 1, 3)","(1, 3, 1, 3)",1.0,1.0,1.0,1.0
68,1644477.0,1646328.0,1645886.0,1646327.0,60ff2046a84c7d1de05f5f87,0.0,0.0,yellow_full_triangle_grey.png,red_full_square_grey.png,green_half_square_white.png,green_full_circle_grey.png,green_empty_square_grey.png,5.0,3.0,3.0,1145.0,1315.0,425.0,1538.0,345.0,3.0,,,,,0.0,1,s,124.0,,,,0,1,3.0,766.6999999992549,345.0,3.0,4.0,"[(1, 2, 1, 1), (0, 2, 2, 1), (2, 1, 2, 2), (2, 2, 0, 1), (2, 0, 2, 1)]",d,s,d,s,green,yellow,red,full,full,full,circle,triangle,square,grey,grey,grey,1.0,3.0,1.0,3.0,1.0,68,0,test,36,8,0.9,1.0,3.0,2.0,2.0,"(3, 1, 3, 1)","(1, 3, 2, 2)",1.0,1.0,0.0,0.0
69,1657227.0,1679361.0,1679184.0,1679360.0,60ff2046a84c7d1de05f5f87,1.0,0.0,yellow_half_circle_white.png,green_half_circle_white.png,yellow_full_circle_grey.png,green_half_triangle_white.png,red_half_square_white.png,5.0,1.0,2.0,527.0,1498.0,171.0,599.0,145.0,1.0,,,,,0.0,0,g,145.0,,,,0,1,3.0,550.5,145.0,2.0,4.0,"[(1, 1, 0, 2), (2, 1, 0, 2), (1, 2, 0, 1), (2, 1, 1, 2), (0, 1, 2, 2)]",d,s,d,s,red,green,yellow,half,half,half,square,triangle,circle,white,white,white,5.0,3.0,1.0,3.0,1.0,69,1,test,37,9,0.9,3.0,1.0,3.0,1.0,"(3, 1, 3, 1)","(3, 1, 3, 1)",1.0,1.0,1.0,1.0
70,1688976.0,1697744.0,1697402.0,1697743.0,60ff2046a84c7d1de05f5f87,1.0,0.0,red_full_square_white.png,yellow_half_square_white.png,red_full_square_black.png,green_empty_circle_black.png,green_empty_square_white.png,5.0,2.0,2.0,585.0,1742.0,339.0,2044.0,125.0,2.0,,,,,0.0,0,g,125.0,,,,0,1,3.0,567.3000000007451,125.0,2.0,1.0,"[(0, 2, 2, 2), (1, 1, 2, 2), (0, 2, 2, 0), (2, 0, 0, 0), (2, 0, 2, 2)]",d,d,s,s,green,red,yellow,empty,full,half,square,square,square,white,white,white,2.0,3.0,3.0,1.0,1.0,70,1,test,38,10,0.9,3.0,3.0,1.0,1.0,"(3, 3, 1, 1)","(3, 3, 1, 1)",1.0,1.0,1.0,1.0
71,1710126.0,1712793.0,1712103.0,1712793.0,60ff2046a84c7d1de05f5f87,1.0,0.0,red_empty_triangle_white.png,red_full_triangle_black.png,red_half_square_black.png,red_half_triangle_grey.png,yellow_full_triangle_white.png,4.0,3.0,2.0,1330.0,3023.0,686.0,1473.0,124.0,3.0,,,,,0.0,1,s,124.0,,,,0,1,3.0,900.5,124.0,2.0,4.0,"[(0, 0, 1, 2), (0, 2, 1, 0), (0, 1, 2, 0), (0, 1, 1, 1), (1, 2, 1, 2)]",s,d,s,d,red,red,red,half,empty,full,triangle,triangle,triangle,grey,white,black,1.0,1.0,3.0,1.0,3.0,71,1,test,39,11,0.9,1.0,3.0,1.0,3.0,"(1, 3, 1, 3)","(1, 3, 1, 3)",1.0,1.0,1.0,1.0
72,1723576.0,1729793.0,1729553.0,1729793.0,60ff2046a84c7d1de05f5f87,1.0,0.0,red_empty_triangle_grey.png,red_half_triangle_grey.png,red_half_circle_grey.png,red_empty_square_white.png,red_empty_circle_black.png,5.0,3.0,2.0,2487.0,1238.0,234.0,1891.0,145.0,3.0,,,,,0.0,1,s,145.0,,,,0,1,3.0,2085.0,145.0,2.0,0.0,"[(0, 0, 1, 1), (0, 1, 1, 1), (0, 1, 0, 1), (0, 0, 2, 2), (0, 0, 0, 0)]",s,s,d,d,red,red,red,empty,empty,empty,circle,square,triangle,black,white,grey,5.0,1.0,1.0,3.0,3.0,72,1,test,40,12,0.9,1.0,1.0,3.0,3.0,"(1, 1, 3, 3)","(1, 1, 3, 3)",1.0,1.0,1.0,1.0
73,1742325.0,1747410.0,1747213.0,1747410.0,60ff2046a84c7d1de05f5f87,1.0,0.0,red_empty_triangle_black.png,red_half_triangle_grey.png,green_empty_triangle_grey.png,yellow_full_triangle_grey.png,yellow_half_triangle_black.png,4.0,3.0,2.0,2249.0,1406.0,193.0,994.0,234.0,3.0,,,,,0.0,0,g,234.0,,,,0,1,3.0,467.5,234.0,2.0,0.0,"[(0, 0, 1, 0), (0, 1, 1, 1), (2, 0, 1, 1), (1, 2, 1, 1), (1, 1, 1, 0)]",d,d,s,s,yellow,green,red,full,empty,half,triangle,triangle,triangle,grey,grey,grey,6.0,3.0,3.0,1.0,1.0,73,1,test,41,13,0.9,3.0,3.0,1.0,1.0,"(3, 3, 1, 1)","(3, 3, 1, 1)",1.0,1.0,1.0,1.0
74,1759059.0,1760793.0,1760164.0,1760792.0,60ff2046a84c7d1de05f5f87,0.0,0.0,yellow_half_circle_white.png,yellow_full_circle_white.png,red_half_triangle_white.png,green_half_square_white.png,yellow_empty_triangle_black.png,5.0,3.0,3.0,1486.0,1646.0,628.0,1549.0,125.0,3.0,,,,,0.0,1,s,134.0,,,,0,1,3.0,900.2999999970198,125.0,3.0,4.0,"[(1, 1, 0, 2), (1, 2, 0, 2), (0, 1, 1, 2), (2, 1, 2, 2), (1, 0, 1, 0)]",d,s,d,s,green,yellow,red,half,half,half,square,circle,triangle,white,white,white,3.0,3.0,1.0,3.0,1.0,74,0,test,41,14,0.9,1.0,3.0,2.0,2.0,"(3, 1, 3, 1)","(1, 3, 2, 2)",1.0,1.0,0.0,0.0
75,1773426.0,1775509.0,1775250.0,1775509.0,60ff2046a84c7d1de05f5f87,1.0,0.0,red_half_square_grey.png,red_empty_triangle_grey.png,red_empty_circle_white.png,red_empty_square_black.png,yellow_empty_circle_white.png,4.0,4.0,3.0,605.0,2859.0,246.0,1406.0,234.0,4.0,,,,,0.0,1,s,234.0,,,,0,1,3.0,584.6999999992549,234.0,3.0,4.0,"[(0, 1, 2, 1), (0, 0, 1, 1), (0, 0, 0, 2), (0, 0, 2, 0), (1, 0, 0, 2)]",s,s,d,d,red,red,red,empty,empty,empty,square,circle,triangle,black,white,grey,6.0,1.0,1.0,3.0,3.0,75,1,test,42,15,0.9,1.0,1.0,3.0,3.0,"(1, 1, 3, 3)","(1, 1, 3, 3)",1.0,1.0,1.0,1.0
76,1785775.0,1795259.0,1795085.0,1795259.0,60ff2046a84c7d1de05f5f87,0.0,0.0,yellow_empty_triangle_grey.png,yellow_empty_circle_grey.png,yellow_empty_square_black.png,red_half_square_grey.png,yellow_empty_triangle_white.png,3.0,2.0,2.0,2937.0,1524.0,170.0,2441.0,123.0,2.0,,,,,0.0,0,g,235.0,,,,0,1,3.0,350.1000000014901,123.0,2.0,4.0,"[(1, 0, 1, 1), (1, 0, 0, 1), (1, 0, 2, 0), (0, 1, 2, 1), (1, 0, 1, 2)]",s,s,d,d,yellow,yellow,yellow,empty,empty,empty,triangle,square,circle,white,black,grey,7.0,1.0,1.0,3.0,3.0,76,0,test,42,16,0.9,1.0,1.0,3.0,2.0,"(1, 1, 3, 3)","(1, 1, 3, 2)",1.0,1.0,1.0,0.0
77,1808975.0,1812875.0,1812566.0,1812875.0,60ff2046a84c7d1de05f5f87,1.0,0.0,yellow_full_triangle_grey.png,green_half_circle_black.png,red_full_triangle_black.png,red_full_square_grey.png,red_full_circle_white.png,5.0,3.0,3.0,955.0,1604.0,301.0,1211.0,345.0,3.0,,,,,0.0,1,s,345.0,,,,0,1,3.0,550.6000000014901,345.0,3.0,4.0,"[(1, 2, 1, 1), (2, 1, 0, 0), (0, 2, 1, 0), (0, 2, 2, 1), (0, 2, 0, 2)]",s,s,d,d,red,red,red,full,full,full,circle,square,triangle,white,grey,black,9.0,1.0,1.0,3.0,3.0,77,1,test,43,17,0.9,1.0,1.0,3.0,3.0,"(1, 1, 3, 3)","(1, 1, 3, 3)",1.0,1.0,1.0,1.0
78,1824658.0,1829875.0,1829142.0,1829874.0,60ff2046a84c7d1de05f5f87,1.0,0.0,green_half_square_white.png,green_empty_triangle_black.png,yellow_full_square_white.png,yellow_half_square_grey.png,red_empty_square_white.png,5.0,3.0,2.0,1773.0,2868.0,729.0,852.0,135.0,3.0,,,,,0.0,0,g,135.0,,,,0,1,3.0,1100.5,135.0,2.0,4.0,"[(2, 1, 2, 2), (2, 0, 1, 0), (1, 2, 2, 2), (1, 1, 2, 1), (0, 0, 2, 2)]",d,d,s,s,red,green,yellow,empty,half,full,square,square,square,white,white,white,4.0,3.0,3.0,1.0,1.0,78,1,test,44,18,0.9,3.0,3.0,1.0,1.0,"(3, 3, 1, 1)","(3, 3, 1, 1)",1.0,1.0,1.0,1.0
